"","participantId","clockwise","correct","rt","sessionNo","trialNo","rotation","noise","triggerTime","responseStart","responseEnd"
"1","MAPL902",TRUE,TRUE,0.27,1,1,0,0,NA,NA,NA
"2","MAPL902",FALSE,TRUE,0.31,1,2,0,0,NA,NA,NA
"3","MAPL902",TRUE,TRUE,0.14,1,3,0,0,NA,NA,NA
"4","MAPL902",TRUE,TRUE,0.24,1,4,1,0,NA,NA,NA
"5","MAPL902",FALSE,TRUE,0.44,1,5,1,0,NA,NA,NA
"6","MAPL902",FALSE,TRUE,0.22,1,6,1,0,NA,NA,NA
"7","MAPL902",TRUE,TRUE,0.21,1,7,2,0,NA,NA,NA
"8","MAPL902",FALSE,TRUE,0.21,1,8,2,0,NA,NA,NA
"9","MAPL902",TRUE,TRUE,0.11,1,9,2,0,NA,NA,NA
"10","MAPL902",TRUE,TRUE,0.09,1,10,3,0,NA,NA,NA
"11","MAPL902",TRUE,TRUE,0.13,1,11,3,0,NA,NA,NA
"12","MAPL902",TRUE,TRUE,0.14,1,12,3,0,NA,NA,NA
"13","MAPL902",TRUE,TRUE,0.15,1,13,4,0,NA,NA,NA
"14","MAPL902",FALSE,TRUE,0.12,1,14,4,0,NA,NA,NA
"15","MAPL902",FALSE,TRUE,0.16,1,15,4,0,NA,NA,NA
"16","MAPL902",FALSE,TRUE,0.17,1,16,5,0,NA,NA,NA
"17","MAPL902",TRUE,TRUE,0.23,1,17,5,0,NA,NA,NA
"18","MAPL902",TRUE,TRUE,0.22,1,18,5,0,NA,NA,NA
"19","MAPL902",TRUE,TRUE,0,1,19,6,0,NA,NA,NA
"20","MAPL902",TRUE,TRUE,0.06,1,20,6,0,NA,NA,NA
"21","MAPL902",TRUE,TRUE,0.21,1,21,6,0,NA,NA,NA
"22","MAPL902",TRUE,TRUE,0.08,1,22,7,0,NA,NA,NA
"23","MAPL902",FALSE,TRUE,0.27,1,23,7,0,NA,NA,NA
"24","MAPL902",FALSE,TRUE,0.22,1,24,7,0,NA,NA,NA
"25","MAPL902",TRUE,TRUE,0.14,1,25,8,0,NA,NA,NA
"26","MAPL902",FALSE,TRUE,0.21,1,26,8,0,NA,NA,NA
"27","MAPL902",TRUE,TRUE,0.18,1,27,8,0,NA,NA,NA
"28","MAPL902",TRUE,TRUE,0.23,1,28,9,0,NA,NA,NA
"29","MAPL902",TRUE,TRUE,0.2,1,29,9,0,NA,NA,NA
"30","MAPL902",TRUE,TRUE,0.18,1,30,9,0,NA,NA,NA
"31","MAPL902",FALSE,TRUE,0.23,1,31,10,0,NA,NA,NA
"32","MAPL902",TRUE,TRUE,0.13,1,32,10,0,NA,NA,NA
"33","MAPL902",TRUE,TRUE,0.17,1,33,10,0,NA,NA,NA
"34","MAPL902",TRUE,TRUE,0.13,1,34,11,0,NA,NA,NA
"35","MAPL902",TRUE,TRUE,0.21,1,35,11,0,NA,NA,NA
"36","MAPL902",FALSE,TRUE,0.11,1,36,11,0,NA,NA,NA
"37","MAPL902",TRUE,TRUE,0.17,1,37,12,0,NA,NA,NA
"38","MAPL902",FALSE,TRUE,0.06,1,38,12,0,NA,NA,NA
"39","MAPL902",TRUE,TRUE,0.03,1,39,12,0,NA,NA,NA
"40","MAPL902",FALSE,TRUE,0.47,1,40,13,0,NA,NA,NA
"41","MAPL902",FALSE,TRUE,0.26,1,41,13,0,NA,NA,NA
"42","MAPL902",TRUE,TRUE,0.12,1,42,13,0,NA,NA,NA
"43","MAPL902",FALSE,TRUE,0.13,1,43,14,0,NA,NA,NA
"44","MAPL902",FALSE,TRUE,0.24,1,44,14,0,NA,NA,NA
"45","MAPL902",TRUE,TRUE,0.52,1,45,14,0,NA,NA,NA
"46","MAPL902",TRUE,TRUE,0.45,1,46,15,0,NA,NA,NA
"47","MAPL902",FALSE,TRUE,0.3,1,47,15,0,NA,NA,NA
"48","MAPL902",FALSE,TRUE,11.7499999999998,1,48,15,0,NA,NA,NA
"49","MAPL902",FALSE,FALSE,0.32,1,49,16,0,NA,NA,NA
"50","MAPL902",TRUE,FALSE,0.33,1,50,15,0,NA,NA,NA
"51","MAPL902",FALSE,FALSE,0.23,1,51,14,0,NA,NA,NA
"52","MAPL902",FALSE,TRUE,0.33,1,52,13,0,NA,NA,NA
"53","MAPL902",FALSE,TRUE,0.31,1,53,13,0,NA,NA,NA
"54","MAPL902",TRUE,TRUE,0.5,1,54,13,0,NA,NA,NA
"55","MAPL902",TRUE,TRUE,0.31,1,55,14,0,NA,NA,NA
"56","MAPL902",FALSE,TRUE,0.3,1,56,14,0,NA,NA,NA
"57","MAPL902",FALSE,TRUE,0.31,1,57,14,0,NA,NA,NA
"58","MAPL902",FALSE,TRUE,0.33,1,58,15,0,NA,NA,NA
"59","MAPL902",TRUE,TRUE,0.22,1,59,15,0,NA,NA,NA
"60","MAPL902",TRUE,TRUE,0.22,1,60,15,0,NA,NA,NA
"61","MAPL902",TRUE,TRUE,0.11,1,61,16,0,NA,NA,NA
"62","MAPL902",FALSE,FALSE,0.910000000000001,1,62,16,0,NA,NA,NA
"63","MAPL902",TRUE,FALSE,1.78,1,63,15,0,NA,NA,NA
"64","MAPL902",FALSE,TRUE,0.42,1,64,14,0,NA,NA,NA
"65","MAPL902",FALSE,TRUE,0.34,1,65,14,0,NA,NA,NA
"66","MAPL902",FALSE,TRUE,0.33,1,66,14,0,NA,NA,NA
"67","MAPL902",TRUE,TRUE,0.31,1,67,15,0,NA,NA,NA
"68","MAPL902",FALSE,FALSE,0.25,1,68,15,0,NA,NA,NA
"69","MAPL902",FALSE,TRUE,0.25,1,69,14,0,NA,NA,NA
"70","MAPL902",FALSE,TRUE,0.44,1,70,14,0,NA,NA,NA
"71","MAPL902",FALSE,TRUE,0.28,1,71,14,0,NA,NA,NA
"72","MAPL902",TRUE,TRUE,0.28,1,72,15,0,NA,NA,NA
"73","MAPL902",TRUE,TRUE,0.2,1,73,15,0,NA,NA,NA
"74","MAPL902",TRUE,TRUE,0.55,1,74,15,0,NA,NA,NA
"75","MAPL902",FALSE,TRUE,0.33,1,75,16,0,NA,NA,NA
"76","MAPL902",TRUE,TRUE,0.3,1,76,16,0,NA,NA,NA
"77","MAPL902",TRUE,FALSE,0.31,1,77,16,0,NA,NA,NA
"78","MAPL902",TRUE,FALSE,0.25,1,78,15,0,NA,NA,NA
"79","MAPL902",TRUE,TRUE,0.33,1,79,14,0,NA,NA,NA
"80","MAPL902",FALSE,TRUE,0.34,1,80,14,0,NA,NA,NA
"81","MAPL902",TRUE,TRUE,0.53,1,81,14,0,NA,NA,NA
"82","MAPL902",FALSE,TRUE,0.18,1,82,15,0,NA,NA,NA
"83","MAPL902",TRUE,TRUE,0.47,1,83,15,0,NA,NA,NA
"84","MAPL902",TRUE,TRUE,0.29,1,84,15,0,NA,NA,NA
"85","MAPL902",FALSE,TRUE,0.45,1,85,16,0,NA,NA,NA
"86","MAPL902",TRUE,TRUE,0.34,1,86,16,0,NA,NA,NA
"87","MAPL902",TRUE,TRUE,0.3,1,87,16,0,NA,NA,NA
"88","MAPL902",TRUE,TRUE,0.25,1,88,17,0,NA,NA,NA
"89","MAPL902",FALSE,TRUE,0.27,1,89,17,0,NA,NA,NA
"90","MAPL902",FALSE,FALSE,0.28,1,90,17,0,NA,NA,NA
"91","MAPL902",TRUE,FALSE,0.22,1,91,16,0,NA,NA,NA
"92","MAPL902",TRUE,TRUE,0.38,1,92,15,0,NA,NA,NA
"93","MAPL902",FALSE,TRUE,0.76,1,93,15,0,NA,NA,NA
"94","MAPL902",FALSE,TRUE,0.27,1,94,15,0,NA,NA,NA
"95","MAPL902",TRUE,TRUE,0.5,1,95,16,0,NA,NA,NA
"96","MAPL902",FALSE,FALSE,0.33,1,96,16,0,NA,NA,NA
"97","MAPL902",FALSE,TRUE,0.26,1,97,15,0,NA,NA,NA
"98","MAPL902",TRUE,TRUE,0.38,2,1,12,0,NA,NA,NA
"99","MAPL902",TRUE,TRUE,0.29,2,2,12,0,NA,NA,NA
"100","MAPL902",TRUE,TRUE,0.38,2,3,12,0,NA,NA,NA
"101","MAPL902",TRUE,TRUE,0.28,2,4,12,1,NA,NA,NA
"102","MAPL902",FALSE,TRUE,0.25,2,5,12,1,NA,NA,NA
"103","MAPL902",FALSE,TRUE,0.19,2,6,12,1,NA,NA,NA
"104","MAPL902",TRUE,TRUE,0.41,2,7,12,2,NA,NA,NA
"105","MAPL902",FALSE,TRUE,0.2,2,8,12,2,NA,NA,NA
"106","MAPL902",FALSE,TRUE,0.3,2,9,12,2,NA,NA,NA
"107","MAPL902",TRUE,FALSE,0.26,2,10,12,3,NA,NA,NA
"108","MAPL902",TRUE,TRUE,0.26,2,11,12,2,NA,NA,NA
"109","MAPL902",FALSE,TRUE,0.23,2,12,12,2,NA,NA,NA
"110","MAPL902",TRUE,TRUE,0.23,2,13,12,2,NA,NA,NA
"111","MAPL902",FALSE,TRUE,0.31,2,14,12,3,NA,NA,NA
"112","MAPL902",FALSE,TRUE,0.29,2,15,12,3,NA,NA,NA
"113","MAPL902",TRUE,TRUE,0.35,2,16,12,3,NA,NA,NA
"114","MAPL902",TRUE,TRUE,0.45,2,17,12,4,NA,NA,NA
"115","MAPL902",FALSE,TRUE,0.32,2,18,12,4,NA,NA,NA
"116","MAPL902",TRUE,TRUE,0.46,2,19,12,4,NA,NA,NA
"117","MAPL902",TRUE,TRUE,0.22,2,20,12,5,NA,NA,NA
"118","MAPL902",TRUE,TRUE,0.21,2,21,12,5,NA,NA,NA
"119","MAPL902",TRUE,TRUE,0.17,2,22,12,5,NA,NA,NA
"120","MAPL902",FALSE,TRUE,0.19,2,23,12,6,NA,NA,NA
"121","MAPL902",FALSE,FALSE,0.43,2,24,12,6,NA,NA,NA
"122","MAPL902",FALSE,TRUE,0.27,2,25,12,5,NA,NA,NA
"123","MAPL902",FALSE,TRUE,0.32,2,26,12,5,NA,NA,NA
"124","MAPL902",TRUE,TRUE,0.4,2,27,12,5,NA,NA,NA
"125","MAPL902",FALSE,FALSE,0.36,2,28,12,6,NA,NA,NA
"126","MAPL902",FALSE,TRUE,0.17,2,29,12,5,NA,NA,NA
"127","MAPL902",FALSE,FALSE,0.3,2,30,12,5,NA,NA,NA
"128","MAPL902",TRUE,TRUE,0.2,2,31,12,4,NA,NA,NA
"129","MAPL902",TRUE,TRUE,0.19,2,32,12,4,NA,NA,NA
"130","MAPL902",TRUE,TRUE,0.1,2,33,12,4,NA,NA,NA
"131","MAPL902",FALSE,TRUE,0.28,2,34,12,5,NA,NA,NA
"132","MAPL902",TRUE,TRUE,0.14,2,35,12,5,NA,NA,NA
"133","MAPL902",TRUE,TRUE,0.43,2,36,12,5,NA,NA,NA
"134","MAPL902",TRUE,TRUE,0.24,2,37,12,6,NA,NA,NA
"135","MAPL902",TRUE,TRUE,0.28,2,38,12,6,NA,NA,NA
"136","MAPL902",FALSE,TRUE,0.2,2,39,12,6,NA,NA,NA
"137","MAPL902",FALSE,TRUE,0.33,2,40,12,7,NA,NA,NA
"138","MAPL902",FALSE,TRUE,0.34,2,41,12,7,NA,NA,NA
"139","MAPL902",TRUE,TRUE,0.27,2,42,12,7,NA,NA,NA
"140","MAPL902",TRUE,TRUE,0.21,2,43,12,8,NA,NA,NA
"141","MAPL902",FALSE,FALSE,0.21,2,44,12,8,NA,NA,NA
"142","MAPL902",FALSE,TRUE,0.19,2,45,12,7,NA,NA,NA
"143","MAPL902",FALSE,TRUE,0.25,2,46,12,7,NA,NA,NA
"144","MAPL902",FALSE,TRUE,0.27,2,47,12,7,NA,NA,NA
"145","MAPL902",TRUE,TRUE,0.19,2,48,12,8,NA,NA,NA
"146","MAPL902",TRUE,FALSE,0.17,2,49,12,8,NA,NA,NA
"147","MAPL902",FALSE,FALSE,0.31,2,50,12,7,NA,NA,NA
"148","MAPL902",FALSE,TRUE,0.3,2,51,12,6,NA,NA,NA
"149","MAPL902",TRUE,TRUE,0.23,2,52,12,6,NA,NA,NA
"150","MAPL902",TRUE,TRUE,0.18,2,53,12,6,NA,NA,NA
"151","MAPL902",FALSE,FALSE,0.45,2,54,12,7,NA,NA,NA
"152","MAPL902",FALSE,TRUE,0.22,2,55,12,6,NA,NA,NA
"153","MAPL902",FALSE,TRUE,0.22,2,56,12,6,NA,NA,NA
"154","MAPL902",TRUE,TRUE,0.33,2,57,12,6,NA,NA,NA
"155","MAPL902",FALSE,TRUE,0.24,2,58,12,7,NA,NA,NA
"156","MAPL902",TRUE,TRUE,0.13,2,59,12,7,NA,NA,NA
"157","MAPL902",TRUE,TRUE,0.1,2,60,12,7,NA,NA,NA
"158","MAPL902",FALSE,TRUE,0.21,2,61,12,8,NA,NA,NA
"159","MAPL902",FALSE,TRUE,0.23,2,62,12,8,NA,NA,NA
"160","MAPL902",TRUE,TRUE,0.19,2,63,12,8,NA,NA,NA
"161","MAPL902",TRUE,TRUE,0.34,2,64,12,9,NA,NA,NA
"162","MAPL902",FALSE,TRUE,0.31,2,65,12,9,NA,NA,NA
"163","MAPL902",FALSE,TRUE,0.23,2,66,12,9,NA,NA,NA
"164","MAPL902",FALSE,TRUE,0.26,2,67,12,10,NA,NA,NA
"165","MAPL902",FALSE,TRUE,0.28,2,68,12,10,NA,NA,NA
"166","MAPL902",TRUE,TRUE,0.2,2,69,12,10,NA,NA,NA
"167","MAPL902",FALSE,FALSE,0.26,2,70,12,11,NA,NA,NA
"168","MAPL902",FALSE,TRUE,0.28,2,71,12,10,NA,NA,NA
"169","MAPL902",TRUE,TRUE,0.18,2,72,12,10,NA,NA,NA
"170","MAPL902",FALSE,TRUE,0.34,2,73,12,10,NA,NA,NA
"171","MAPL902",TRUE,TRUE,0.23,2,74,12,11,NA,NA,NA
"172","MAPL902",FALSE,TRUE,0.23,2,75,12,11,NA,NA,NA
"173","MAPL902",FALSE,TRUE,0.39,2,76,12,11,NA,NA,NA
"174","MAPL902",TRUE,TRUE,0.19,2,77,12,12,NA,NA,NA
"175","MAPL902",FALSE,TRUE,0.15,2,78,12,12,NA,NA,NA
"176","MAPL902",FALSE,TRUE,0.16,2,79,12,12,NA,NA,NA
"177","MAPL902",FALSE,TRUE,0.22,2,80,12,13,NA,NA,NA
"178","MAPL902",FALSE,TRUE,0.27,2,81,12,13,NA,NA,NA
"179","MAPL902",FALSE,TRUE,0.18,2,82,12,13,NA,NA,NA
"180","MAPL902",FALSE,TRUE,0.24,2,83,12,14,NA,NA,NA
"181","MAPL902",FALSE,TRUE,0.2,2,84,12,14,NA,NA,NA
"182","MAPL902",FALSE,TRUE,0.41,2,85,12,14,NA,NA,NA
"183","MAPL902",TRUE,TRUE,0.17,2,86,12,15,NA,NA,NA
"184","MAPL902",FALSE,TRUE,0.17,2,87,12,15,NA,NA,NA
"185","MAPL902",FALSE,TRUE,0.17,2,88,12,15,NA,NA,NA
"186","MAPL902",FALSE,TRUE,0.21,2,89,12,16,NA,NA,NA
"187","MAPL902",FALSE,TRUE,0.21,2,90,12,16,NA,NA,NA
"188","MAPL902",TRUE,TRUE,0.48,2,91,12,16,NA,NA,NA
"189","MAPL902",FALSE,TRUE,0.3,2,92,12,17,NA,NA,NA
"190","MAPL902",FALSE,TRUE,0.2,2,93,12,17,NA,NA,NA
"191","MAPL902",FALSE,TRUE,0.22,2,94,12,17,NA,NA,NA
"192","MAPL902",TRUE,TRUE,0.29,2,95,12,18,NA,NA,NA
"193","MAPL902",TRUE,FALSE,0.29,2,96,12,18,NA,NA,NA
"194","MAPL902",FALSE,TRUE,0.31,2,97,12,17,NA,NA,NA
"195","MAPL902",TRUE,TRUE,0.22,3,1,9,11,30,32.2,32.42
"196","MAPL902",FALSE,TRUE,0.18,3,2,9,11,35,37.2,37.38
"197","MAPL902",FALSE,TRUE,0.11,3,3,9,11,40,42.2,42.31
"198","MAPL902",TRUE,TRUE,0.13,3,4,9,11,45,47.2,47.33
"199","MAPL902",TRUE,TRUE,0.24,3,5,9,11,50,52.2,52.44
"200","MAPL902",TRUE,TRUE,0.09,3,6,9,11,55,57.2,57.29
"201","MAPL902",TRUE,TRUE,0.13,3,7,15,17,60,62.2,62.33
"202","MAPL902",FALSE,TRUE,0.19,3,8,15,17,65,67.2,67.39
"203","MAPL902",FALSE,TRUE,0.26,3,9,15,17,70,72.2,72.46
"204","MAPL902",FALSE,TRUE,0.18,3,10,15,17,75,77.2,77.38
"205","MAPL902",TRUE,TRUE,0.22,3,11,15,17,80,82.2,82.42
"206","MAPL902",TRUE,TRUE,0.28,3,12,15,17,85,87.2,87.48
"207","MAPL902",TRUE,TRUE,0.17,3,13,15,17,90,92.2,92.37
"208","MAPL902",TRUE,TRUE,0.39,3,14,15,17,95,97.2,97.59
"209","MAPL902",TRUE,TRUE,0.26,3,15,15,17,100,102.2,102.46
"210","MAPL902",FALSE,TRUE,0.25,3,16,15,17,105,107.2,107.45
"211","MAPL902",TRUE,TRUE,0.15,3,17,15,17,110,112.2,112.35
"212","MAPL902",FALSE,TRUE,0.24,3,18,15,17,115,117.2,117.44
"213","MAPL902",TRUE,TRUE,0.05,3,19,15,17,120,122.2,122.25
"214","MAPL902",TRUE,TRUE,0.2,3,20,15,17,125,127.2,127.4
"215","MAPL902",TRUE,TRUE,0.13,3,21,15,17,130,132.2,132.33
"216","MAPL902",FALSE,TRUE,0.21,3,22,15,17,135,137.2,137.41
"217","MAPL902",TRUE,FALSE,0.78,3,23,15,17,140,142.2,142.98
"218","MAPL902",TRUE,TRUE,0.14,3,24,15,17,145,147.2,147.34
"219","MAPL902",FALSE,TRUE,0.14,3,25,15,17,150,152.2,152.34
"220","MAPL902",FALSE,TRUE,0.23,3,26,15,17,155,157.2,157.43
"221","MAPL902",FALSE,TRUE,0.36,3,27,15,17,160,162.2,162.56
"222","MAPL902",TRUE,TRUE,0.16,3,28,15,17,165,167.2,167.36
"223","MAPL902",TRUE,TRUE,0.26,3,29,15,17,170,172.2,172.46
"224","MAPL902",TRUE,TRUE,0.27,3,30,15,17,175,177.2,177.47
"225","MAPL902",TRUE,TRUE,0.22,3,31,21,23,180,182.2,182.42
"226","MAPL902",FALSE,FALSE,0.45,3,32,21,23,185,187.2,187.65
"227","MAPL902",FALSE,TRUE,0.22,3,33,21,23,190,192.2,192.42
"228","MAPL902",FALSE,FALSE,0.12,3,34,21,23,195,197.2,197.32
"229","MAPL902",FALSE,TRUE,0.18,3,35,21,23,200,202.2,202.38
"230","MAPL902",FALSE,TRUE,1.13,3,36,21,23,205,207.2,208.33
"231","MAPL902",FALSE,TRUE,0.14,3,37,21,23,210,212.2,212.34
"232","MAPL902",TRUE,TRUE,0.27,3,38,21,23,215,217.2,217.47
"233","MAPL902",FALSE,TRUE,0.930000000000001,3,39,21,23,220,222.2,223.13
"234","MAPL902",TRUE,FALSE,0.22,3,40,21,23,225,227.2,227.42
"235","MAPL902",TRUE,FALSE,0.69,3,41,21,23,230,232.2,232.89
"236","MAPL902",TRUE,TRUE,0.23,3,42,21,23,235,237.2,237.43
"237","MAPL902",FALSE,TRUE,1.06,3,43,21,23,240,242.2,243.26
"238","MAPL902",FALSE,TRUE,0.41,3,44,21,23,245,247.2,247.61
"239","MAPL902",FALSE,TRUE,0.31,3,45,21,23,250,252.2,252.51
"240","MAPL902",FALSE,FALSE,1.35,3,46,21,23,255,257.2,258.55
"241","MAPL902",TRUE,TRUE,0.4,3,47,21,23,260,262.2,262.6
"242","MAPL902",TRUE,TRUE,0.23,3,48,21,23,265,267.2,267.43
"243","MAPL902",TRUE,TRUE,0.33,3,49,21,23,270,272.2,272.53
"244","MAPL902",FALSE,TRUE,0.71,3,50,21,23,275,277.2,277.91
"245","MAPL902",FALSE,TRUE,0.41,3,51,21,23,280,282.2,282.61
"246","MAPL902",FALSE,TRUE,0.16,3,52,21,23,285,287.2,287.36
"247","MAPL902",TRUE,TRUE,0.75,3,53,21,23,290,292.2,292.95
"248","MAPL902",TRUE,TRUE,0.28,3,54,21,23,295,297.2,297.48
"249","MAPL902",FALSE,TRUE,0.18,3,55,9,11,300,302.2,302.38
"250","MAPL902",TRUE,TRUE,0.01,3,56,9,11,305,307.2,307.21
"251","MAPL902",TRUE,TRUE,0.18,3,57,9,11,310,312.2,312.38
"252","MAPL902",TRUE,TRUE,0.13,3,58,9,11,315,317.2,317.33
"253","MAPL902",TRUE,TRUE,0.19,3,59,9,11,320,322.2,322.39
"254","MAPL902",FALSE,TRUE,0.04,3,60,9,11,325,327.2,327.24
"255","MAPL902",TRUE,TRUE,0.08,3,61,9,11,330,332.2,332.28
"256","MAPL902",TRUE,TRUE,0.16,3,62,9,11,335,337.2,337.36
"257","MAPL902",TRUE,TRUE,0.01,3,63,9,11,340,342.2,342.21
"258","MAPL902",FALSE,TRUE,0.57,3,64,9,11,345,347.2,347.77
"259","MAPL902",FALSE,TRUE,0.07,3,65,9,11,350,352.2,352.27
"260","MAPL902",TRUE,TRUE,0.04,3,66,9,11,355,357.2,357.24
"261","MAPL902",FALSE,TRUE,0.5,3,67,9,11,360,362.2,362.7
"262","MAPL902",TRUE,TRUE,0.05,3,68,9,11,365,367.2,367.25
"263","MAPL902",FALSE,TRUE,0.05,3,69,9,11,370,372.2,372.25
"264","MAPL902",FALSE,TRUE,0.06,3,70,9,11,375,377.2,377.26
"265","MAPL902",FALSE,TRUE,0.05,3,71,9,11,380,382.2,382.25
"266","MAPL902",FALSE,TRUE,0.01,3,72,9,11,385,387.2,387.21
"267","MAPL902",TRUE,TRUE,0,3,73,9,11,390,392.2,392.2
"268","MAPL902",FALSE,TRUE,0.44,3,74,9,11,395,397.2,397.64
"269","MAPL902",FALSE,TRUE,0.02,3,75,9,11,400,402.2,402.22
"270","MAPL902",TRUE,TRUE,0,3,76,9,11,405,407.2,407.2
"271","MAPL902",FALSE,TRUE,0.13,3,77,9,11,410,412.2,412.33
"272","MAPL902",TRUE,TRUE,0.41,3,78,9,11,415,417.2,417.61
"273","MAPL902",FALSE,TRUE,0.17,3,79,15,17,420,422.2,422.37
"274","MAPL902",TRUE,TRUE,0.17,3,80,15,17,425,427.2,427.37
"275","MAPL902",TRUE,TRUE,0.11,3,81,15,17,430,432.2,432.31
"276","MAPL902",FALSE,TRUE,0.04,3,82,15,17,435,437.2,437.24
"277","MAPL902",TRUE,FALSE,0.51,3,83,15,17,440,442.2,442.71
"278","MAPL902",TRUE,TRUE,0.08,3,84,15,17,445,447.2,447.28
"279","MAPL902",FALSE,TRUE,0.13,3,85,15,17,450,452.2,452.33
"280","MAPL902",TRUE,TRUE,0.05,3,86,15,17,455,457.2,457.25
"281","MAPL902",TRUE,TRUE,0.16,3,87,15,17,460,462.2,462.36
"282","MAPL902",TRUE,TRUE,0.11,3,88,15,17,465,467.2,467.31
"283","MAPL902",TRUE,TRUE,0.23,3,89,15,17,470,472.2,472.43
"284","MAPL902",FALSE,TRUE,0.17,3,90,15,17,475,477.2,477.37
"285","MAPL902",FALSE,TRUE,0.18,3,91,15,17,480,482.2,482.38
"286","MAPL902",TRUE,TRUE,0.05,3,92,15,17,485,487.2,487.25
"287","MAPL902",TRUE,TRUE,0.16,3,93,15,17,490,492.2,492.36
"288","MAPL902",FALSE,TRUE,0.14,3,94,15,17,495,497.2,497.34
"289","MAPL902",FALSE,TRUE,0.13,3,95,15,17,500,502.2,502.33
"290","MAPL902",FALSE,TRUE,0.26,3,96,15,17,505,507.2,507.46
"291","MAPL902",TRUE,TRUE,0.950000000000001,3,97,15,17,510,512.2,513.15
"292","MAPL902",TRUE,FALSE,0.23,3,98,15,17,515,517.2,517.43
"293","MAPL902",TRUE,TRUE,0.16,3,99,15,17,520,522.2,522.36
"294","MAPL902",TRUE,TRUE,0.15,3,100,15,17,525,527.2,527.35
"295","MAPL902",FALSE,TRUE,0.11,3,101,15,17,530,532.2,532.31
"296","MAPL902",TRUE,TRUE,0.07,3,102,15,17,535,537.2,537.27
"297","MAPL902",TRUE,TRUE,0.09,3,103,9,11,540,542.2,542.29
"298","MAPL902",FALSE,TRUE,0.07,3,104,9,11,545,547.2,547.27
"299","MAPL902",FALSE,TRUE,0.02,3,105,9,11,550,552.2,552.22
"300","MAPL902",FALSE,TRUE,0.03,3,106,9,11,555,557.2,557.23
"301","MAPL902",TRUE,TRUE,0.03,3,107,9,11,560,562.2,562.23
"302","MAPL902",TRUE,TRUE,0.08,3,108,9,11,565,567.2,567.28
"303","MAPL902",FALSE,TRUE,0.02,3,109,9,11,570,572.2,572.22
"304","MAPL902",FALSE,TRUE,0.01,3,110,9,11,575,577.2,577.21
"305","MAPL902",FALSE,TRUE,0.1,3,111,9,11,580,582.2,582.3
"306","MAPL902",TRUE,TRUE,0.04,3,112,9,11,585,587.2,587.24
"307","MAPL902",FALSE,TRUE,0.45,3,113,9,11,590,592.2,592.65
"308","MAPL902",TRUE,TRUE,0.06,3,114,9,11,595,597.2,597.26
"309","MAPL902",TRUE,TRUE,0.05,3,115,9,11,600,602.2,602.25
"310","MAPL902",FALSE,TRUE,0.16,3,116,9,11,605,607.2,607.36
"311","MAPL902",FALSE,TRUE,0.17,3,117,9,11,610,612.2,612.37
"312","MAPL902",FALSE,TRUE,0.15,3,118,9,11,615,617.2,617.35
"313","MAPL902",TRUE,TRUE,0.09,3,119,9,11,620,622.2,622.29
"314","MAPL902",TRUE,TRUE,0.16,3,120,9,11,625,627.2,627.36
"315","MAPL902",TRUE,TRUE,0.19,3,121,9,11,630,632.2,632.39
"316","MAPL902",FALSE,TRUE,0.11,3,122,9,11,635,637.2,637.31
"317","MAPL902",FALSE,TRUE,0.21,3,123,9,11,640,642.2,642.41
"318","MAPL902",TRUE,TRUE,0.13,3,124,9,11,645,647.2,647.33
"319","MAPL902",FALSE,TRUE,0.14,3,125,9,11,650,652.2,652.34
"320","MAPL902",TRUE,TRUE,0,3,126,9,11,655,657.2,657.2
"321","MAPL902",FALSE,TRUE,0.26,3,127,21,23,660,662.2,662.46
"322","MAPL902",TRUE,TRUE,0.09,3,128,21,23,665,667.2,667.29
"323","MAPL902",FALSE,FALSE,0.3,3,129,21,23,670,672.2,672.5
"324","MAPL902",TRUE,TRUE,0.17,3,130,21,23,675,677.2,677.37
"325","MAPL902",FALSE,TRUE,0.11,3,131,21,23,680,682.2,682.31
"326","MAPL902",FALSE,TRUE,0.28,3,132,21,23,685,687.2,687.48
"327","MAPL902",FALSE,TRUE,0.17,3,133,21,23,690,692.2,692.37
"328","MAPL902",FALSE,TRUE,0.2,3,134,21,23,695,697.2,697.4
"329","MAPL902",TRUE,TRUE,0.3,3,135,21,23,700,702.2,702.5
"330","MAPL902",TRUE,TRUE,0.13,3,136,21,23,705,707.2,707.33
"331","MAPL902",FALSE,TRUE,0.28,3,137,21,23,710,712.2,712.48
"332","MAPL902",FALSE,TRUE,0.75,3,138,21,23,715,717.2,717.95
"333","MAPL902",TRUE,TRUE,0.22,3,139,21,23,720,722.2,722.42
"334","MAPL902",FALSE,TRUE,0.24,3,140,21,23,725,727.2,727.44
"335","MAPL902",TRUE,TRUE,0.28,3,141,21,23,730,732.2,732.48
"336","MAPL902",FALSE,FALSE,0.66,3,142,21,23,735,737.2,737.86
"337","MAPL902",TRUE,FALSE,1.76,3,143,21,23,740,742.2,743.96
"338","MAPL902",TRUE,TRUE,0.19,3,144,21,23,745,747.2,747.39
"339","MAPL902",FALSE,TRUE,0.49,3,145,21,23,750,752.2,752.69
"340","MAPL902",TRUE,FALSE,0.4,3,146,21,23,755,757.2,757.6
"341","MAPL902",FALSE,TRUE,0.19,3,147,21,23,760,762.2,762.39
"342","MAPL902",TRUE,TRUE,0.22,3,148,21,23,765,767.2,767.42
"343","MAPL902",FALSE,TRUE,0.22,3,149,21,23,770,772.2,772.42
"344","MAPL902",FALSE,TRUE,0.2,3,150,21,23,775,777.2,777.4
"345","MAPL001",TRUE,TRUE,0.65,1,1,0,0,NA,NA,NA
"346","MAPL001",TRUE,TRUE,0.11,1,2,0,0,NA,NA,NA
"347","MAPL001",TRUE,TRUE,0.25,1,3,0,0,NA,NA,NA
"348","MAPL001",TRUE,TRUE,0.14,1,4,1,0,NA,NA,NA
"349","MAPL001",FALSE,TRUE,0.23,1,5,1,0,NA,NA,NA
"350","MAPL001",TRUE,TRUE,0.28,1,6,1,0,NA,NA,NA
"351","MAPL001",TRUE,TRUE,0.11,1,7,2,0,NA,NA,NA
"352","MAPL001",FALSE,TRUE,0.12,1,8,2,0,NA,NA,NA
"353","MAPL001",FALSE,TRUE,0.16,1,9,2,0,NA,NA,NA
"354","MAPL001",FALSE,TRUE,0.21,1,10,3,0,NA,NA,NA
"355","MAPL001",FALSE,TRUE,0.12,1,11,3,0,NA,NA,NA
"356","MAPL001",TRUE,TRUE,0.14,1,12,3,0,NA,NA,NA
"357","MAPL001",TRUE,TRUE,0.1,1,13,4,0,NA,NA,NA
"358","MAPL001",FALSE,TRUE,0.24,1,14,4,0,NA,NA,NA
"359","MAPL001",FALSE,TRUE,0.03,1,15,4,0,NA,NA,NA
"360","MAPL001",FALSE,TRUE,0.1,1,16,5,0,NA,NA,NA
"361","MAPL001",FALSE,TRUE,0.06,1,17,5,0,NA,NA,NA
"362","MAPL001",FALSE,TRUE,0.03,1,18,5,0,NA,NA,NA
"363","MAPL001",TRUE,TRUE,0.07,1,19,6,0,NA,NA,NA
"364","MAPL001",TRUE,TRUE,0.02,1,20,6,0,NA,NA,NA
"365","MAPL001",TRUE,TRUE,0.74,1,21,6,0,NA,NA,NA
"366","MAPL001",TRUE,TRUE,0.05,1,22,7,0,NA,NA,NA
"367","MAPL001",FALSE,TRUE,0.09,1,23,7,0,NA,NA,NA
"368","MAPL001",FALSE,TRUE,0.3,1,24,7,0,NA,NA,NA
"369","MAPL001",FALSE,TRUE,0.36,1,25,8,0,NA,NA,NA
"370","MAPL001",FALSE,TRUE,0.15,1,26,8,0,NA,NA,NA
"371","MAPL001",FALSE,TRUE,0.31,1,27,8,0,NA,NA,NA
"372","MAPL001",FALSE,TRUE,0.42,1,28,9,0,NA,NA,NA
"373","MAPL001",FALSE,TRUE,0.22,1,29,9,0,NA,NA,NA
"374","MAPL001",FALSE,TRUE,0.21,1,30,9,0,NA,NA,NA
"375","MAPL001",TRUE,TRUE,0.16,1,31,10,0,NA,NA,NA
"376","MAPL001",TRUE,TRUE,0.22,1,32,10,0,NA,NA,NA
"377","MAPL001",TRUE,TRUE,0.03,1,33,10,0,NA,NA,NA
"378","MAPL001",TRUE,TRUE,0.3,1,34,11,0,NA,NA,NA
"379","MAPL001",TRUE,TRUE,0.04,1,35,11,0,NA,NA,NA
"380","MAPL001",FALSE,TRUE,0.21,1,36,11,0,NA,NA,NA
"381","MAPL001",TRUE,TRUE,0.4,1,37,12,0,NA,NA,NA
"382","MAPL001",TRUE,TRUE,0.1,1,38,12,0,NA,NA,NA
"383","MAPL001",FALSE,TRUE,0.28,1,39,12,0,NA,NA,NA
"384","MAPL001",FALSE,TRUE,0.23,1,40,13,0,NA,NA,NA
"385","MAPL001",FALSE,TRUE,0.35,1,41,13,0,NA,NA,NA
"386","MAPL001",FALSE,TRUE,0.19,1,42,13,0,NA,NA,NA
"387","MAPL001",TRUE,FALSE,0.78,1,43,14,0,NA,NA,NA
"388","MAPL001",TRUE,TRUE,0.04,1,44,13,0,NA,NA,NA
"389","MAPL001",FALSE,TRUE,0.23,1,45,13,0,NA,NA,NA
"390","MAPL001",TRUE,TRUE,0.2,1,46,13,0,NA,NA,NA
"391","MAPL001",FALSE,TRUE,0.2,1,47,14,0,NA,NA,NA
"392","MAPL001",TRUE,TRUE,0.16,1,48,14,0,NA,NA,NA
"393","MAPL001",FALSE,TRUE,0.22,1,49,14,0,NA,NA,NA
"394","MAPL001",TRUE,TRUE,0.04,1,50,15,0,NA,NA,NA
"395","MAPL001",FALSE,TRUE,0.3,1,51,15,0,NA,NA,NA
"396","MAPL001",FALSE,TRUE,0.29,1,52,15,0,NA,NA,NA
"397","MAPL001",TRUE,TRUE,0.28,1,53,16,0,NA,NA,NA
"398","MAPL001",TRUE,TRUE,0.25,1,54,16,0,NA,NA,NA
"399","MAPL001",TRUE,TRUE,0.28,1,55,16,0,NA,NA,NA
"400","MAPL001",TRUE,TRUE,0.36,1,56,17,0,NA,NA,NA
"401","MAPL001",FALSE,TRUE,0.27,1,57,17,0,NA,NA,NA
"402","MAPL001",TRUE,TRUE,0.26,1,58,17,0,NA,NA,NA
"403","MAPL001",FALSE,TRUE,0.15,1,59,18,0,NA,NA,NA
"404","MAPL001",TRUE,TRUE,0.11,1,60,18,0,NA,NA,NA
"405","MAPL001",FALSE,TRUE,0.23,1,61,18,0,NA,NA,NA
"406","MAPL001",FALSE,TRUE,0.14,1,62,19,0,NA,NA,NA
"407","MAPL001",TRUE,TRUE,0.16,1,63,19,0,NA,NA,NA
"408","MAPL001",TRUE,TRUE,0.2,1,64,19,0,NA,NA,NA
"409","MAPL001",FALSE,TRUE,0.2,1,65,20,0,NA,NA,NA
"410","MAPL001",FALSE,TRUE,0.15,1,66,20,0,NA,NA,NA
"411","MAPL001",TRUE,TRUE,0.07,1,67,20,0,NA,NA,NA
"412","MAPL001",TRUE,TRUE,0.25,1,68,21,0,NA,NA,NA
"413","MAPL001",TRUE,TRUE,0.12,1,69,21,0,NA,NA,NA
"414","MAPL001",FALSE,TRUE,0.18,1,70,21,0,NA,NA,NA
"415","MAPL001",FALSE,TRUE,0.22,1,71,22,0,NA,NA,NA
"416","MAPL001",FALSE,TRUE,0.11,1,72,22,0,NA,NA,NA
"417","MAPL001",FALSE,TRUE,0.17,1,73,22,0,NA,NA,NA
"418","MAPL001",TRUE,FALSE,0.18,1,74,23,0,NA,NA,NA
"419","MAPL001",FALSE,TRUE,0.21,1,75,22,0,NA,NA,NA
"420","MAPL001",TRUE,TRUE,0.25,1,76,22,0,NA,NA,NA
"421","MAPL001",TRUE,TRUE,0.19,1,77,22,0,NA,NA,NA
"422","MAPL001",FALSE,TRUE,0.33,1,78,23,0,NA,NA,NA
"423","MAPL001",FALSE,TRUE,0.16,1,79,23,0,NA,NA,NA
"424","MAPL001",FALSE,TRUE,0.3,1,80,23,0,NA,NA,NA
"425","MAPL001",FALSE,TRUE,0.36,1,81,24,0,NA,NA,NA
"426","MAPL001",TRUE,TRUE,0.33,1,82,24,0,NA,NA,NA
"427","MAPL001",TRUE,TRUE,0.27,1,83,24,0,NA,NA,NA
"428","MAPL001",TRUE,TRUE,0.34,1,84,25,0,NA,NA,NA
"429","MAPL001",TRUE,TRUE,0.21,1,85,25,0,NA,NA,NA
"430","MAPL001",TRUE,TRUE,0.14,1,86,25,0,NA,NA,NA
"431","MAPL001",TRUE,TRUE,0.09,1,87,26,0,NA,NA,NA
"432","MAPL001",TRUE,TRUE,0.16,1,88,26,0,NA,NA,NA
"433","MAPL001",FALSE,FALSE,0.28,1,89,26,0,NA,NA,NA
"434","MAPL001",FALSE,FALSE,0.36,1,90,25,0,NA,NA,NA
"435","MAPL001",TRUE,TRUE,0.58,1,91,24,0,NA,NA,NA
"436","MAPL001",TRUE,TRUE,0.36,1,92,24,0,NA,NA,NA
"437","MAPL001",FALSE,TRUE,0.46,1,93,24,0,NA,NA,NA
"438","MAPL001",FALSE,TRUE,0.29,1,94,25,0,NA,NA,NA
"439","MAPL001",TRUE,TRUE,0.29,1,95,25,0,NA,NA,NA
"440","MAPL001",TRUE,FALSE,0.36,1,96,25,0,NA,NA,NA
"441","MAPL001",FALSE,FALSE,0.38,1,97,24,0,NA,NA,NA
"442","MAPL001",TRUE,TRUE,0.54,2,1,20,0,NA,NA,NA
"443","MAPL001",TRUE,TRUE,0.17,2,2,20,0,NA,NA,NA
"444","MAPL001",TRUE,TRUE,0.17,2,3,20,0,NA,NA,NA
"445","MAPL001",FALSE,TRUE,0.17,2,4,20,1,NA,NA,NA
"446","MAPL001",FALSE,TRUE,0.14,2,5,20,1,NA,NA,NA
"447","MAPL001",TRUE,FALSE,0.21,2,6,20,1,NA,NA,NA
"448","MAPL001",TRUE,TRUE,0.11,2,7,20,0,NA,NA,NA
"449","MAPL001",FALSE,TRUE,0.16,2,8,20,0,NA,NA,NA
"450","MAPL001",FALSE,TRUE,0.12,2,9,20,0,NA,NA,NA
"451","MAPL001",FALSE,TRUE,0.2,2,10,20,1,NA,NA,NA
"452","MAPL001",FALSE,TRUE,0.23,2,11,20,1,NA,NA,NA
"453","MAPL001",TRUE,TRUE,0.12,2,12,20,1,NA,NA,NA
"454","MAPL001",TRUE,TRUE,0.3,2,13,20,2,NA,NA,NA
"455","MAPL001",TRUE,TRUE,0.18,2,14,20,2,NA,NA,NA
"456","MAPL001",FALSE,TRUE,0.19,2,15,20,2,NA,NA,NA
"457","MAPL001",TRUE,TRUE,0.21,2,16,20,3,NA,NA,NA
"458","MAPL001",FALSE,TRUE,0.12,2,17,20,3,NA,NA,NA
"459","MAPL001",FALSE,TRUE,0.4,2,18,20,3,NA,NA,NA
"460","MAPL001",TRUE,TRUE,0.21,2,19,20,4,NA,NA,NA
"461","MAPL001",TRUE,FALSE,0.17,2,20,20,4,NA,NA,NA
"462","MAPL001",FALSE,TRUE,0.46,2,21,20,3,NA,NA,NA
"463","MAPL001",TRUE,TRUE,0.27,2,22,20,3,NA,NA,NA
"464","MAPL001",TRUE,TRUE,0.24,2,23,20,3,NA,NA,NA
"465","MAPL001",FALSE,TRUE,0.29,2,24,20,4,NA,NA,NA
"466","MAPL001",FALSE,TRUE,0.32,2,25,20,4,NA,NA,NA
"467","MAPL001",TRUE,TRUE,0.24,2,26,20,4,NA,NA,NA
"468","MAPL001",FALSE,TRUE,0.33,2,27,20,5,NA,NA,NA
"469","MAPL001",FALSE,TRUE,0.5,2,28,20,5,NA,NA,NA
"470","MAPL001",FALSE,TRUE,0.38,2,29,20,5,NA,NA,NA
"471","MAPL001",FALSE,TRUE,0.42,2,30,20,6,NA,NA,NA
"472","MAPL001",FALSE,FALSE,0.43,2,31,20,6,NA,NA,NA
"473","MAPL001",FALSE,NA,NA,2,32,20,5,NA,NA,NA
"474","MAPL001",TRUE,TRUE,0.38,2,33,20,4,NA,NA,NA
"475","MAPL001",TRUE,TRUE,0.24,2,34,20,4,NA,NA,NA
"476","MAPL001",FALSE,TRUE,0.73,2,35,20,4,NA,NA,NA
"477","MAPL001",TRUE,TRUE,0.34,2,36,20,5,NA,NA,NA
"478","MAPL001",TRUE,TRUE,0.42,2,37,20,5,NA,NA,NA
"479","MAPL001",FALSE,FALSE,0.45,2,38,20,5,NA,NA,NA
"480","MAPL001",TRUE,FALSE,0.32,2,39,20,4,NA,NA,NA
"481","MAPL001",TRUE,TRUE,0.21,2,40,20,3,NA,NA,NA
"482","MAPL001",FALSE,TRUE,0.31,2,41,20,3,NA,NA,NA
"483","MAPL001",TRUE,TRUE,0.27,2,42,20,3,NA,NA,NA
"484","MAPL001",TRUE,TRUE,0.25,2,43,20,4,NA,NA,NA
"485","MAPL001",FALSE,TRUE,0.21,2,44,20,4,NA,NA,NA
"486","MAPL001",FALSE,TRUE,0.41,2,45,20,4,NA,NA,NA
"487","MAPL001",FALSE,TRUE,0.28,2,46,20,5,NA,NA,NA
"488","MAPL001",TRUE,TRUE,0.31,2,47,20,5,NA,NA,NA
"489","MAPL001",FALSE,NA,NA,2,48,20,5,NA,NA,NA
"490","MAPL001",FALSE,TRUE,0.39,2,49,20,4,NA,NA,NA
"491","MAPL001",FALSE,TRUE,0.19,2,50,20,4,NA,NA,NA
"492","MAPL001",TRUE,TRUE,0.61,2,51,20,4,NA,NA,NA
"493","MAPL001",FALSE,TRUE,0.27,2,52,20,5,NA,NA,NA
"494","MAPL001",FALSE,TRUE,0.4,2,53,20,5,NA,NA,NA
"495","MAPL001",FALSE,TRUE,0.21,2,54,20,5,NA,NA,NA
"496","MAPL001",TRUE,TRUE,0.55,2,55,20,6,NA,NA,NA
"497","MAPL001",FALSE,NA,NA,2,56,20,6,NA,NA,NA
"498","MAPL001",FALSE,FALSE,0.16,2,57,20,5,NA,NA,NA
"499","MAPL001",TRUE,TRUE,0.14,2,58,20,4,NA,NA,NA
"500","MAPL001",TRUE,TRUE,0.37,2,59,20,4,NA,NA,NA
"501","MAPL001",FALSE,TRUE,0.21,2,60,20,4,NA,NA,NA
"502","MAPL001",FALSE,NA,NA,2,61,20,5,NA,NA,NA
"503","MAPL001",TRUE,TRUE,0.26,2,62,20,4,NA,NA,NA
"504","MAPL001",FALSE,TRUE,0.13,2,63,20,4,NA,NA,NA
"505","MAPL001",FALSE,TRUE,0.19,2,64,20,4,NA,NA,NA
"506","MAPL001",FALSE,TRUE,0.08,2,65,20,5,NA,NA,NA
"507","MAPL001",FALSE,TRUE,0.2,2,66,20,5,NA,NA,NA
"508","MAPL001",TRUE,FALSE,0.26,2,67,20,5,NA,NA,NA
"509","MAPL001",TRUE,TRUE,0.36,2,68,20,4,NA,NA,NA
"510","MAPL001",FALSE,FALSE,0.32,2,69,20,4,NA,NA,NA
"511","MAPL001",FALSE,TRUE,0.23,2,70,20,3,NA,NA,NA
"512","MAPL001",TRUE,NA,NA,2,71,20,3,NA,NA,NA
"513","MAPL001",TRUE,TRUE,0.09,2,72,20,2,NA,NA,NA
"514","MAPL001",TRUE,TRUE,0.17,2,73,20,2,NA,NA,NA
"515","MAPL001",TRUE,TRUE,0.09,2,74,20,2,NA,NA,NA
"516","MAPL001",FALSE,FALSE,0.35,2,75,20,3,NA,NA,NA
"517","MAPL001",TRUE,TRUE,0.14,2,76,20,2,NA,NA,NA
"518","MAPL001",FALSE,TRUE,0.2,2,77,20,2,NA,NA,NA
"519","MAPL001",TRUE,TRUE,0.53,2,78,20,2,NA,NA,NA
"520","MAPL001",FALSE,TRUE,0.5,2,79,20,3,NA,NA,NA
"521","MAPL001",FALSE,TRUE,0.43,2,80,20,3,NA,NA,NA
"522","MAPL001",FALSE,TRUE,0.35,2,81,20,3,NA,NA,NA
"523","MAPL001",FALSE,TRUE,0.21,2,82,20,4,NA,NA,NA
"524","MAPL001",TRUE,TRUE,0.18,2,83,20,4,NA,NA,NA
"525","MAPL001",TRUE,TRUE,0.22,2,84,20,4,NA,NA,NA
"526","MAPL001",FALSE,FALSE,0.37,2,85,20,5,NA,NA,NA
"527","MAPL001",TRUE,TRUE,0.07,2,86,20,4,NA,NA,NA
"528","MAPL001",FALSE,TRUE,0.14,2,87,20,4,NA,NA,NA
"529","MAPL001",TRUE,TRUE,0.11,2,88,20,4,NA,NA,NA
"530","MAPL001",FALSE,TRUE,0.15,2,89,20,5,NA,NA,NA
"531","MAPL001",TRUE,TRUE,0.09,2,90,20,5,NA,NA,NA
"532","MAPL001",TRUE,TRUE,0.21,2,91,20,5,NA,NA,NA
"533","MAPL001",FALSE,TRUE,0.31,2,92,20,6,NA,NA,NA
"534","MAPL001",FALSE,FALSE,0.41,2,93,20,6,NA,NA,NA
"535","MAPL001",TRUE,TRUE,0.16,2,94,20,5,NA,NA,NA
"536","MAPL001",FALSE,TRUE,0.37,2,95,20,5,NA,NA,NA
"537","MAPL001",TRUE,TRUE,0.2,2,96,20,5,NA,NA,NA
"538","MAPL001",TRUE,TRUE,0.18,2,97,20,6,NA,NA,NA
"539","MAPL001",TRUE,TRUE,0.23,3,1,18,0,30,32.2,32.43
"540","MAPL001",FALSE,TRUE,0.16,3,2,18,0,35,37.2,37.36
"541","MAPL001",TRUE,TRUE,0.03,3,3,18,0,40,42.2,42.23
"542","MAPL001",FALSE,TRUE,0.35,3,4,18,0,45,47.2,47.55
"543","MAPL001",FALSE,TRUE,0.2,3,5,18,0,50,52.2,52.4
"544","MAPL001",TRUE,TRUE,0.13,3,6,18,0,55,57.2,57.33
"545","MAPL001",TRUE,FALSE,0.5,3,7,24,6,60,62.2,62.7
"546","MAPL001",FALSE,TRUE,0.3,3,8,24,6,65,67.2,67.5
"547","MAPL001",TRUE,TRUE,0.25,3,9,24,6,70,72.2,72.45
"548","MAPL001",FALSE,TRUE,0.23,3,10,24,6,75,77.2,77.43
"549","MAPL001",FALSE,TRUE,0.3,3,11,24,6,80,82.2,82.5
"550","MAPL001",FALSE,TRUE,0.3,3,12,24,6,85,87.2,87.5
"551","MAPL001",TRUE,FALSE,0.33,3,13,24,6,90,92.2,92.53
"552","MAPL001",FALSE,TRUE,0.26,3,14,24,6,95,97.2,97.46
"553","MAPL001",FALSE,TRUE,0.2,3,15,24,6,100,102.2,102.4
"554","MAPL001",TRUE,TRUE,0.4,3,16,24,6,105,107.2,107.6
"555","MAPL001",TRUE,TRUE,0.38,3,17,24,6,110,112.2,112.58
"556","MAPL001",FALSE,TRUE,0.33,3,18,24,6,115,117.2,117.53
"557","MAPL001",TRUE,TRUE,0.11,3,19,24,6,120,122.2,122.31
"558","MAPL001",FALSE,TRUE,0.27,3,20,24,6,125,127.2,127.47
"559","MAPL001",TRUE,TRUE,0.2,3,21,24,6,130,132.2,132.4
"560","MAPL001",TRUE,TRUE,0.22,3,22,24,6,135,137.2,137.42
"561","MAPL001",TRUE,FALSE,0.31,3,23,24,6,140,142.2,142.51
"562","MAPL001",FALSE,TRUE,0.38,3,24,24,6,145,147.2,147.58
"563","MAPL001",FALSE,TRUE,0.31,3,25,24,6,150,152.2,152.51
"564","MAPL001",TRUE,TRUE,0.2,3,26,24,6,155,157.2,157.4
"565","MAPL001",TRUE,TRUE,0.22,3,27,24,6,160,162.2,162.42
"566","MAPL001",FALSE,TRUE,0.32,3,28,24,6,165,167.2,167.52
"567","MAPL001",TRUE,TRUE,0.16,3,29,24,6,170,172.2,172.36
"568","MAPL001",FALSE,FALSE,0.31,3,30,24,6,175,177.2,177.51
"569","MAPL001",FALSE,TRUE,0.31,3,31,30,12,180,182.2,182.51
"570","MAPL001",TRUE,TRUE,0.38,3,32,30,12,185,187.2,187.58
"571","MAPL001",FALSE,TRUE,0.59,3,33,30,12,190,192.2,192.79
"572","MAPL001",FALSE,TRUE,0.42,3,34,30,12,195,197.2,197.62
"573","MAPL001",TRUE,TRUE,0.46,3,35,30,12,200,202.2,202.66
"574","MAPL001",TRUE,TRUE,0.36,3,36,30,12,205,207.2,207.56
"575","MAPL001",TRUE,FALSE,0.46,3,37,30,12,210,212.2,212.66
"576","MAPL001",TRUE,TRUE,0.39,3,38,30,12,215,217.2,217.59
"577","MAPL001",TRUE,FALSE,0.72,3,39,30,12,220,222.2,222.92
"578","MAPL001",FALSE,FALSE,0.45,3,40,30,12,225,227.2,227.65
"579","MAPL001",FALSE,FALSE,0.51,3,41,30,12,230,232.2,232.71
"580","MAPL001",TRUE,FALSE,0.57,3,42,30,12,235,237.2,237.77
"581","MAPL001",TRUE,FALSE,0.74,3,43,30,12,240,242.2,242.94
"582","MAPL001",FALSE,TRUE,0.33,3,44,30,12,245,247.2,247.53
"583","MAPL001",TRUE,TRUE,0.5,3,45,30,12,250,252.2,252.7
"584","MAPL001",FALSE,TRUE,0.39,3,46,30,12,255,257.2,257.59
"585","MAPL001",FALSE,FALSE,0.33,3,47,30,12,260,262.2,262.53
"586","MAPL001",FALSE,FALSE,0.47,3,48,30,12,265,267.2,267.67
"587","MAPL001",FALSE,TRUE,0.27,3,49,30,12,270,272.2,272.47
"588","MAPL001",TRUE,TRUE,0.6,3,50,30,12,275,277.2,277.8
"589","MAPL001",TRUE,FALSE,0.45,3,51,30,12,280,282.2,282.65
"590","MAPL001",TRUE,TRUE,0.17,3,52,30,12,285,287.2,287.37
"591","MAPL001",TRUE,TRUE,0.36,3,53,30,12,290,292.2,292.56
"592","MAPL001",TRUE,TRUE,0.26,3,54,30,12,295,297.2,297.46
"593","MAPL001",FALSE,TRUE,0.33,3,55,18,0,300,302.2,302.53
"594","MAPL001",FALSE,TRUE,0.37,3,56,18,0,305,307.2,307.57
"595","MAPL001",FALSE,TRUE,0.22,3,57,18,0,310,312.2,312.42
"596","MAPL001",FALSE,TRUE,0.29,3,58,18,0,315,317.2,317.49
"597","MAPL001",TRUE,TRUE,0.35,3,59,18,0,320,322.2,322.55
"598","MAPL001",TRUE,TRUE,0.15,3,60,18,0,325,327.2,327.35
"599","MAPL001",TRUE,TRUE,0.16,3,61,18,0,330,332.2,332.36
"600","MAPL001",TRUE,TRUE,0.13,3,62,18,0,335,337.2,337.33
"601","MAPL001",FALSE,TRUE,0.21,3,63,18,0,340,342.2,342.41
"602","MAPL001",TRUE,TRUE,1.31,3,64,18,0,345,347.2,348.51
"603","MAPL001",FALSE,TRUE,0.28,3,65,18,0,350,352.2,352.48
"604","MAPL001",TRUE,TRUE,0.21,3,66,18,0,355,357.2,357.41
"605","MAPL001",TRUE,TRUE,0.1,3,67,18,0,360,362.2,362.3
"606","MAPL001",FALSE,TRUE,0.34,3,68,18,0,365,367.2,367.54
"607","MAPL001",FALSE,TRUE,0.28,3,69,18,0,370,372.2,372.48
"608","MAPL001",FALSE,TRUE,0.23,3,70,18,0,375,377.2,377.43
"609","MAPL001",FALSE,TRUE,0.34,3,71,18,0,380,382.2,382.54
"610","MAPL001",FALSE,FALSE,0.61,3,72,18,0,385,387.2,387.81
"611","MAPL001",TRUE,TRUE,0.26,3,73,18,0,390,392.2,392.46
"612","MAPL001",TRUE,TRUE,0.12,3,74,18,0,395,397.2,397.32
"613","MAPL001",TRUE,TRUE,0.15,3,75,18,0,400,402.2,402.35
"614","MAPL001",TRUE,TRUE,0.17,3,76,18,0,405,407.2,407.37
"615","MAPL001",TRUE,TRUE,0.05,3,77,18,0,410,412.2,412.25
"616","MAPL001",FALSE,TRUE,0.24,3,78,18,0,415,417.2,417.44
"617","MAPL001",FALSE,FALSE,0.32,3,79,24,6,420,422.2,422.52
"618","MAPL001",TRUE,TRUE,0.18,3,80,24,6,425,427.2,427.38
"619","MAPL001",FALSE,TRUE,0.23,3,81,24,6,430,432.2,432.43
"620","MAPL001",TRUE,TRUE,0.28,3,82,24,6,435,437.2,437.48
"621","MAPL001",TRUE,FALSE,0.33,3,83,24,6,440,442.2,442.53
"622","MAPL001",TRUE,TRUE,0.32,3,84,24,6,445,447.2,447.52
"623","MAPL001",FALSE,FALSE,0.69,3,85,24,6,450,452.2,452.89
"624","MAPL001",TRUE,FALSE,0.870000000000001,3,86,24,6,455,457.2,458.07
"625","MAPL001",TRUE,TRUE,0.23,3,87,24,6,460,462.2,462.43
"626","MAPL001",FALSE,FALSE,0.2,3,88,24,6,465,467.2,467.4
"627","MAPL001",TRUE,TRUE,0.17,3,89,24,6,470,472.2,472.37
"628","MAPL001",FALSE,TRUE,0.13,3,90,24,6,475,477.2,477.33
"629","MAPL001",FALSE,TRUE,0.18,3,91,24,6,480,482.2,482.38
"630","MAPL001",FALSE,TRUE,0.2,3,92,24,6,485,487.2,487.4
"631","MAPL001",TRUE,TRUE,0.48,3,93,24,6,490,492.2,492.68
"632","MAPL001",TRUE,TRUE,0.6,3,94,24,6,495,497.2,497.8
"633","MAPL001",TRUE,TRUE,0.2,3,95,24,6,500,502.2,502.4
"634","MAPL001",TRUE,TRUE,0.31,3,96,24,6,505,507.2,507.51
"635","MAPL001",FALSE,TRUE,0.18,3,97,24,6,510,512.2,512.38
"636","MAPL001",FALSE,FALSE,0.45,3,98,24,6,515,517.2,517.65
"637","MAPL001",TRUE,TRUE,0.41,3,99,24,6,520,522.2,522.61
"638","MAPL001",FALSE,TRUE,0.7,3,100,24,6,525,527.2,527.9
"639","MAPL001",TRUE,TRUE,0.18,3,101,24,6,530,532.2,532.38
"640","MAPL001",TRUE,TRUE,0.27,3,102,24,6,535,537.2,537.47
"641","MAPL001",FALSE,TRUE,0.66,3,103,18,0,540,542.2,542.86
"642","MAPL001",TRUE,TRUE,1.51,3,104,18,0,545,547.2,548.71
"643","MAPL001",FALSE,TRUE,0.1,3,105,18,0,550,552.2,552.3
"644","MAPL001",FALSE,TRUE,0.24,3,106,18,0,555,557.2,557.44
"645","MAPL001",TRUE,TRUE,0.36,3,107,18,0,560,562.2,562.56
"646","MAPL001",TRUE,TRUE,0.32,3,108,18,0,565,567.2,567.52
"647","MAPL001",FALSE,TRUE,0.1,3,109,18,0,570,572.2,572.3
"648","MAPL001",FALSE,TRUE,0.21,3,110,18,0,575,577.2,577.41
"649","MAPL001",FALSE,TRUE,0.12,3,111,18,0,580,582.2,582.32
"650","MAPL001",FALSE,TRUE,0.06,3,112,18,0,585,587.2,587.26
"651","MAPL001",FALSE,TRUE,0.2,3,113,18,0,590,592.2,592.4
"652","MAPL001",TRUE,TRUE,0.27,3,114,18,0,595,597.2,597.47
"653","MAPL001",TRUE,TRUE,0.1,3,115,18,0,600,602.2,602.3
"654","MAPL001",TRUE,TRUE,0.2,3,116,18,0,605,607.2,607.4
"655","MAPL001",TRUE,TRUE,0.79,3,117,18,0,610,612.2,612.99
"656","MAPL001",TRUE,TRUE,0.1,3,118,18,0,615,617.2,617.3
"657","MAPL001",FALSE,TRUE,0.14,3,119,18,0,620,622.2,622.34
"658","MAPL001",FALSE,TRUE,0.13,3,120,18,0,625,627.2,627.33
"659","MAPL001",FALSE,TRUE,0.24,3,121,18,0,630,632.2,632.44
"660","MAPL001",FALSE,TRUE,0.26,3,122,18,0,635,637.2,637.46
"661","MAPL001",FALSE,FALSE,0.81,3,123,18,0,640,642.2,643.01
"662","MAPL001",TRUE,TRUE,0.2,3,124,18,0,645,647.2,647.4
"663","MAPL001",TRUE,TRUE,0.32,3,125,18,0,650,652.2,652.52
"664","MAPL001",TRUE,TRUE,0.28,3,126,18,0,655,657.2,657.48
"665","MAPL001",FALSE,TRUE,0.61,3,127,30,12,660,662.2,662.81
"666","MAPL001",TRUE,TRUE,0.66,3,128,30,12,665,667.2,667.86
"667","MAPL001",FALSE,TRUE,0.61,3,129,30,12,670,672.2,672.81
"668","MAPL001",TRUE,FALSE,0.3,3,130,30,12,675,677.2,677.5
"669","MAPL001",FALSE,TRUE,0.12,3,131,30,12,680,682.2,682.32
"670","MAPL001",FALSE,TRUE,0.25,3,132,30,12,685,687.2,687.45
"671","MAPL001",TRUE,TRUE,0.49,3,133,30,12,690,692.2,692.69
"672","MAPL001",TRUE,TRUE,0.16,3,134,30,12,695,697.2,697.36
"673","MAPL001",FALSE,FALSE,0.69,3,135,30,12,700,702.2,702.89
"674","MAPL001",TRUE,FALSE,1.5,3,136,30,12,705,707.2,708.7
"675","MAPL001",TRUE,TRUE,0.1,3,137,30,12,710,712.2,712.3
"676","MAPL001",FALSE,TRUE,0.1,3,138,30,12,715,717.2,717.3
"677","MAPL001",TRUE,TRUE,0.19,3,139,30,12,720,722.2,722.39
"678","MAPL001",FALSE,TRUE,0.16,3,140,30,12,725,727.2,727.36
"679","MAPL001",TRUE,TRUE,0.25,3,141,30,12,730,732.2,732.45
"680","MAPL001",FALSE,FALSE,1.13,3,142,30,12,735,737.2,738.33
"681","MAPL001",TRUE,TRUE,0.38,3,143,30,12,740,742.2,742.58
"682","MAPL001",FALSE,TRUE,0.16,3,144,30,12,745,747.2,747.36
"683","MAPL001",FALSE,TRUE,0.17,3,145,30,12,750,752.2,752.37
"684","MAPL001",FALSE,TRUE,0.37,3,146,30,12,755,757.2,757.57
"685","MAPL001",TRUE,TRUE,0.870000000000001,3,147,30,12,760,762.2,763.07
"686","MAPL001",TRUE,TRUE,0.47,3,148,30,12,765,767.2,767.67
"687","MAPL001",TRUE,TRUE,0.41,3,149,30,12,770,772.2,772.61
"688","MAPL001",TRUE,TRUE,0.32,4,1,18,0,NA,NA,NA
"689","MAPL001",FALSE,TRUE,0.37,4,2,18,0,NA,NA,NA
"690","MAPL001",FALSE,TRUE,0.19,4,3,18,0,NA,NA,NA
"691","MAPL001",TRUE,TRUE,0.03,4,4,18,0,NA,NA,NA
"692","MAPL001",FALSE,TRUE,0.23,4,5,18,0,NA,NA,NA
"693","MAPL001",TRUE,TRUE,0.01,4,6,18,0,NA,NA,NA
"694","MAPL001",TRUE,FALSE,0.27,4,7,30,12,NA,NA,NA
"695","MAPL001",FALSE,TRUE,0.17,4,8,30,12,NA,NA,NA
"696","MAPL001",FALSE,TRUE,0.19,4,9,30,12,NA,NA,NA
"697","MAPL001",TRUE,FALSE,0.32,4,10,30,12,NA,NA,NA
"698","MAPL001",FALSE,FALSE,0.72,4,11,30,12,NA,NA,NA
"699","MAPL001",FALSE,TRUE,0.65,4,12,30,12,NA,NA,NA
"700","MAPL001",FALSE,TRUE,0.39,4,13,30,12,NA,NA,NA
"701","MAPL001",FALSE,FALSE,0.33,4,14,30,12,NA,NA,NA
"702","MAPL001",TRUE,TRUE,0.15,4,15,30,12,NA,NA,NA
"703","MAPL001",TRUE,FALSE,0.900000000000001,4,16,30,12,NA,NA,NA
"704","MAPL001",FALSE,TRUE,0.48,4,17,30,12,NA,NA,NA
"705","MAPL001",FALSE,TRUE,0.58,4,18,30,12,NA,NA,NA
"706","MAPL001",TRUE,TRUE,0.54,4,19,30,12,NA,NA,NA
"707","MAPL001",FALSE,FALSE,0.66,4,20,30,12,NA,NA,NA
"708","MAPL001",TRUE,TRUE,0.69,4,21,30,12,NA,NA,NA
"709","MAPL001",FALSE,FALSE,0.25,4,22,30,12,NA,NA,NA
"710","MAPL001",FALSE,TRUE,0.36,4,23,30,12,NA,NA,NA
"711","MAPL001",TRUE,TRUE,0.57,4,24,30,12,NA,NA,NA
"712","MAPL001",TRUE,TRUE,0.46,4,25,30,12,NA,NA,NA
"713","MAPL001",FALSE,FALSE,0.75,4,26,30,12,NA,NA,NA
"714","MAPL001",TRUE,FALSE,0.67,4,27,30,12,NA,NA,NA
"715","MAPL001",TRUE,TRUE,0.25,4,28,30,12,NA,NA,NA
"716","MAPL001",TRUE,TRUE,0.2,4,29,30,12,NA,NA,NA
"717","MAPL001",TRUE,FALSE,0.27,4,30,30,12,NA,NA,NA
"718","MAPL001",FALSE,TRUE,0.11,4,31,18,0,NA,NA,NA
"719","MAPL001",FALSE,TRUE,0.11,4,32,18,0,NA,NA,NA
"720","MAPL001",TRUE,TRUE,0.15,4,33,18,0,NA,NA,NA
"721","MAPL001",TRUE,TRUE,0.04,4,34,18,0,NA,NA,NA
"722","MAPL001",FALSE,TRUE,0.27,4,35,18,0,NA,NA,NA
"723","MAPL001",FALSE,TRUE,0.12,4,36,18,0,NA,NA,NA
"724","MAPL001",TRUE,TRUE,0.1,4,37,18,0,NA,NA,NA
"725","MAPL001",FALSE,FALSE,0.1,4,38,18,0,NA,NA,NA
"726","MAPL001",TRUE,TRUE,0,4,39,18,0,NA,NA,NA
"727","MAPL001",FALSE,TRUE,0.09,4,40,18,0,NA,NA,NA
"728","MAPL001",TRUE,TRUE,0.1,4,41,18,0,NA,NA,NA
"729","MAPL001",TRUE,TRUE,0.1,4,42,18,0,NA,NA,NA
"730","MAPL001",FALSE,TRUE,0.15,4,43,18,0,NA,NA,NA
"731","MAPL001",FALSE,TRUE,0.14,4,44,18,0,NA,NA,NA
"732","MAPL001",FALSE,TRUE,0.19,4,45,18,0,NA,NA,NA
"733","MAPL001",FALSE,TRUE,0.2,4,46,18,0,NA,NA,NA
"734","MAPL001",TRUE,TRUE,0.03,4,47,18,0,NA,NA,NA
"735","MAPL001",TRUE,TRUE,0.23,4,48,18,0,NA,NA,NA
"736","MAPL001",FALSE,TRUE,0.53,4,49,18,0,NA,NA,NA
"737","MAPL001",FALSE,TRUE,0.16,4,50,18,0,NA,NA,NA
"738","MAPL001",TRUE,TRUE,0.11,4,51,18,0,NA,NA,NA
"739","MAPL001",TRUE,TRUE,0.09,4,52,18,0,NA,NA,NA
"740","MAPL001",FALSE,TRUE,0,4,53,18,0,NA,NA,NA
"741","MAPL001",TRUE,TRUE,0.36,4,54,18,0,NA,NA,NA
"742","MAPL001",TRUE,TRUE,0.14,4,55,24,6,NA,NA,NA
"743","MAPL001",FALSE,FALSE,0.19,4,56,24,6,NA,NA,NA
"744","MAPL001",TRUE,TRUE,0.42,4,57,24,6,NA,NA,NA
"745","MAPL001",FALSE,FALSE,0.47,4,58,24,6,NA,NA,NA
"746","MAPL001",TRUE,TRUE,0.33,4,59,24,6,NA,NA,NA
"747","MAPL001",FALSE,TRUE,0.69,4,60,24,6,NA,NA,NA
"748","MAPL001",TRUE,TRUE,0.17,4,61,24,6,NA,NA,NA
"749","MAPL001",TRUE,TRUE,0.12,4,62,24,6,NA,NA,NA
"750","MAPL001",FALSE,FALSE,0.840000000000001,4,63,24,6,NA,NA,NA
"751","MAPL001",FALSE,TRUE,0.33,4,64,24,6,NA,NA,NA
"752","MAPL001",FALSE,TRUE,0.33,4,65,24,6,NA,NA,NA
"753","MAPL001",FALSE,FALSE,0.32,4,66,24,6,NA,NA,NA
"754","MAPL001",FALSE,FALSE,0.4,4,67,24,6,NA,NA,NA
"755","MAPL001",TRUE,FALSE,0.910000000000001,4,68,24,6,NA,NA,NA
"756","MAPL001",FALSE,TRUE,0.24,4,69,24,6,NA,NA,NA
"757","MAPL001",FALSE,TRUE,0.46,4,70,24,6,NA,NA,NA
"758","MAPL001",FALSE,FALSE,0.31,4,71,24,6,NA,NA,NA
"759","MAPL001",TRUE,TRUE,0.15,4,72,24,6,NA,NA,NA
"760","MAPL001",FALSE,FALSE,0.52,4,73,24,6,NA,NA,NA
"761","MAPL001",TRUE,TRUE,0.1,4,74,24,6,NA,NA,NA
"762","MAPL001",TRUE,FALSE,0.61,4,75,24,6,NA,NA,NA
"763","MAPL001",FALSE,FALSE,0.6,4,76,24,6,NA,NA,NA
"764","MAPL001",FALSE,FALSE,0.32,4,77,24,6,NA,NA,NA
"765","MAPL001",FALSE,FALSE,0.56,4,78,24,6,NA,NA,NA
"766","MAPL001",FALSE,TRUE,0.14,4,79,18,0,NA,NA,NA
"767","MAPL001",TRUE,TRUE,0.08,4,80,18,0,NA,NA,NA
"768","MAPL001",TRUE,TRUE,0.68,4,81,18,0,NA,NA,NA
"769","MAPL001",FALSE,TRUE,0.28,4,82,18,0,NA,NA,NA
"770","MAPL001",FALSE,TRUE,0.65,4,83,18,0,NA,NA,NA
"771","MAPL001",TRUE,TRUE,0.45,4,84,18,0,NA,NA,NA
"772","MAPL001",TRUE,TRUE,0.15,4,85,18,0,NA,NA,NA
"773","MAPL001",TRUE,TRUE,0.45,4,86,18,0,NA,NA,NA
"774","MAPL001",FALSE,TRUE,0.08,4,87,18,0,NA,NA,NA
"775","MAPL001",FALSE,TRUE,0.37,4,88,18,0,NA,NA,NA
"776","MAPL001",TRUE,TRUE,0.09,4,89,18,0,NA,NA,NA
"777","MAPL001",TRUE,TRUE,0.36,4,90,18,0,NA,NA,NA
"778","MAPL001",FALSE,TRUE,0.13,4,91,18,0,NA,NA,NA
"779","MAPL001",FALSE,TRUE,0.27,4,92,18,0,NA,NA,NA
"780","MAPL001",FALSE,TRUE,0.23,4,93,18,0,NA,NA,NA
"781","MAPL001",TRUE,TRUE,0.02,4,94,18,0,NA,NA,NA
"782","MAPL001",TRUE,TRUE,0.47,4,95,18,0,NA,NA,NA
"783","MAPL001",FALSE,TRUE,0.51,4,96,18,0,NA,NA,NA
"784","MAPL001",TRUE,TRUE,0.19,4,97,18,0,NA,NA,NA
"785","MAPL001",TRUE,TRUE,0,4,98,18,0,NA,NA,NA
"786","MAPL001",FALSE,TRUE,0.14,4,99,18,0,NA,NA,NA
"787","MAPL001",FALSE,TRUE,0.08,4,100,18,0,NA,NA,NA
"788","MAPL001",FALSE,TRUE,0.3,4,101,18,0,NA,NA,NA
"789","MAPL001",FALSE,TRUE,0.13,4,102,18,0,NA,NA,NA
"790","MAPL001",TRUE,TRUE,0.26,4,103,24,6,NA,NA,NA
"791","MAPL001",TRUE,TRUE,0.5,4,104,24,6,NA,NA,NA
"792","MAPL001",FALSE,TRUE,0.2,4,105,24,6,NA,NA,NA
"793","MAPL001",TRUE,TRUE,0.41,4,106,24,6,NA,NA,NA
"794","MAPL001",FALSE,TRUE,0.25,4,107,24,6,NA,NA,NA
"795","MAPL001",TRUE,TRUE,0.51,4,108,24,6,NA,NA,NA
"796","MAPL001",FALSE,TRUE,0.33,4,109,24,6,NA,NA,NA
"797","MAPL001",FALSE,TRUE,0.29,4,110,24,6,NA,NA,NA
"798","MAPL001",TRUE,TRUE,0.1,4,111,24,6,NA,NA,NA
"799","MAPL001",FALSE,FALSE,0.41,4,112,24,6,NA,NA,NA
"800","MAPL001",FALSE,FALSE,0.14,4,113,24,6,NA,NA,NA
"801","MAPL001",FALSE,TRUE,0.19,4,114,24,6,NA,NA,NA
"802","MAPL001",TRUE,TRUE,0.48,4,115,24,6,NA,NA,NA
"803","MAPL001",TRUE,FALSE,0.53,4,116,24,6,NA,NA,NA
"804","MAPL001",TRUE,FALSE,0.51,4,117,24,6,NA,NA,NA
"805","MAPL001",TRUE,TRUE,0.23,4,118,24,6,NA,NA,NA
"806","MAPL001",TRUE,TRUE,0.16,4,119,24,6,NA,NA,NA
"807","MAPL001",TRUE,TRUE,0.18,4,120,24,6,NA,NA,NA
"808","MAPL001",FALSE,TRUE,0.22,4,121,24,6,NA,NA,NA
"809","MAPL001",TRUE,TRUE,0.62,4,122,24,6,NA,NA,NA
"810","MAPL001",FALSE,TRUE,0.13,4,123,24,6,NA,NA,NA
"811","MAPL001",TRUE,TRUE,0.2,4,124,24,6,NA,NA,NA
"812","MAPL001",FALSE,TRUE,0.29,4,125,24,6,NA,NA,NA
"813","MAPL001",TRUE,TRUE,0.15,4,126,24,6,NA,NA,NA
"814","MAPL001",FALSE,FALSE,0.51,4,127,30,12,NA,NA,NA
"815","MAPL001",FALSE,TRUE,0.25,4,128,30,12,NA,NA,NA
"816","MAPL001",FALSE,FALSE,0.22,4,129,30,12,NA,NA,NA
"817","MAPL001",TRUE,TRUE,0.06,4,130,30,12,NA,NA,NA
"818","MAPL001",FALSE,TRUE,0.12,4,131,30,12,NA,NA,NA
"819","MAPL001",TRUE,FALSE,0.25,4,132,30,12,NA,NA,NA
"820","MAPL001",TRUE,FALSE,0.27,4,133,30,12,NA,NA,NA
"821","MAPL001",FALSE,FALSE,0.27,4,134,30,12,NA,NA,NA
"822","MAPL001",TRUE,FALSE,0.68,4,135,30,12,NA,NA,NA
"823","MAPL001",TRUE,TRUE,0.14,4,136,30,12,NA,NA,NA
"824","MAPL001",TRUE,FALSE,0.56,4,137,30,12,NA,NA,NA
"825","MAPL001",FALSE,TRUE,0.34,4,138,30,12,NA,NA,NA
"826","MAPL001",FALSE,FALSE,0.38,4,139,30,12,NA,NA,NA
"827","MAPL001",TRUE,TRUE,0.2,4,140,30,12,NA,NA,NA
"828","MAPL001",TRUE,FALSE,0.32,4,141,30,12,NA,NA,NA
"829","MAPL001",FALSE,TRUE,0.55,4,142,30,12,NA,NA,NA
"830","MAPL001",TRUE,TRUE,0.14,4,143,30,12,NA,NA,NA
"831","MAPL001",TRUE,FALSE,0.17,4,144,30,12,NA,NA,NA
"832","MAPL001",TRUE,TRUE,0.23,4,145,30,12,NA,NA,NA
"833","MAPL001",TRUE,TRUE,0.22,4,146,30,12,NA,NA,NA
"834","MAPL001",FALSE,TRUE,0.05,4,147,30,12,NA,NA,NA
"835","MAPL001",FALSE,TRUE,0.2,4,148,30,12,NA,NA,NA
"836","MAPL001",FALSE,FALSE,0.24,4,149,30,12,NA,NA,NA
"837","MAPL001",FALSE,TRUE,0.05,5,1,18,0,NA,NA,NA
"838","MAPL001",FALSE,TRUE,0.47,5,2,18,0,NA,NA,NA
"839","MAPL001",FALSE,TRUE,0.49,5,3,18,0,NA,NA,NA
"840","MAPL001",FALSE,TRUE,0.16,5,4,18,0,NA,NA,NA
"841","MAPL001",TRUE,TRUE,0.06,5,5,18,0,NA,NA,NA
"842","MAPL001",FALSE,TRUE,0.53,5,6,18,0,NA,NA,NA
"843","MAPL001",FALSE,FALSE,0.12,5,7,30,12,NA,NA,NA
"844","MAPL001",TRUE,TRUE,0.17,5,8,30,12,NA,NA,NA
"845","MAPL001",FALSE,FALSE,0.16,5,9,30,12,NA,NA,NA
"846","MAPL001",TRUE,TRUE,0.16,5,10,30,12,NA,NA,NA
"847","MAPL001",TRUE,TRUE,0.41,5,11,30,12,NA,NA,NA
"848","MAPL001",FALSE,TRUE,0.51,5,12,30,12,NA,NA,NA
"849","MAPL001",FALSE,TRUE,0.23,5,13,30,12,NA,NA,NA
"850","MAPL001",TRUE,FALSE,0.08,5,14,30,12,NA,NA,NA
"851","MAPL001",TRUE,FALSE,0.23,5,15,30,12,NA,NA,NA
"852","MAPL001",FALSE,TRUE,0.39,5,16,30,12,NA,NA,NA
"853","MAPL001",TRUE,TRUE,0.24,5,17,30,12,NA,NA,NA
"854","MAPL001",TRUE,TRUE,0.66,5,18,30,12,NA,NA,NA
"855","MAPL001",TRUE,FALSE,0.4,5,19,30,12,NA,NA,NA
"856","MAPL001",FALSE,FALSE,0.4,5,20,30,12,NA,NA,NA
"857","MAPL001",TRUE,TRUE,0.18,5,21,30,12,NA,NA,NA
"858","MAPL001",TRUE,TRUE,0.13,5,22,30,12,NA,NA,NA
"859","MAPL001",TRUE,FALSE,0.39,5,23,30,12,NA,NA,NA
"860","MAPL001",TRUE,TRUE,0.4,5,24,30,12,NA,NA,NA
"861","MAPL001",TRUE,TRUE,0.26,5,25,30,12,NA,NA,NA
"862","MAPL001",TRUE,TRUE,0.15,5,26,30,12,NA,NA,NA
"863","MAPL001",TRUE,FALSE,0.25,5,27,30,12,NA,NA,NA
"864","MAPL001",FALSE,FALSE,0.12,5,28,30,12,NA,NA,NA
"865","MAPL001",FALSE,FALSE,0.14,5,29,30,12,NA,NA,NA
"866","MAPL001",TRUE,TRUE,0.23,5,30,30,12,NA,NA,NA
"867","MAPL001",TRUE,TRUE,0.41,5,31,24,6,NA,NA,NA
"868","MAPL001",TRUE,TRUE,0.26,5,32,24,6,NA,NA,NA
"869","MAPL001",FALSE,FALSE,0.3,5,33,24,6,NA,NA,NA
"870","MAPL001",TRUE,TRUE,0.16,5,34,24,6,NA,NA,NA
"871","MAPL001",FALSE,FALSE,0.19,5,35,24,6,NA,NA,NA
"872","MAPL001",TRUE,FALSE,0.24,5,36,24,6,NA,NA,NA
"873","MAPL001",TRUE,TRUE,0.1,5,37,24,6,NA,NA,NA
"874","MAPL001",TRUE,TRUE,0.42,5,38,24,6,NA,NA,NA
"875","MAPL001",TRUE,TRUE,0.08,5,39,24,6,NA,NA,NA
"876","MAPL001",TRUE,FALSE,0.41,5,40,24,6,NA,NA,NA
"877","MAPL001",TRUE,TRUE,0.07,5,41,24,6,NA,NA,NA
"878","MAPL001",FALSE,FALSE,0.39,5,42,24,6,NA,NA,NA
"879","MAPL001",FALSE,TRUE,0.32,5,43,24,6,NA,NA,NA
"880","MAPL001",FALSE,FALSE,0.900000000000001,5,44,24,6,NA,NA,NA
"881","MAPL001",FALSE,TRUE,0.52,5,45,24,6,NA,NA,NA
"882","MAPL001",FALSE,TRUE,0.08,5,46,24,6,NA,NA,NA
"883","MAPL001",FALSE,TRUE,0.25,5,47,24,6,NA,NA,NA
"884","MAPL001",TRUE,TRUE,0.24,5,48,24,6,NA,NA,NA
"885","MAPL001",FALSE,FALSE,0.23,5,49,24,6,NA,NA,NA
"886","MAPL001",FALSE,TRUE,0.1,5,50,24,6,NA,NA,NA
"887","MAPL001",FALSE,TRUE,0.31,5,51,24,6,NA,NA,NA
"888","MAPL001",TRUE,TRUE,0.23,5,52,24,6,NA,NA,NA
"889","MAPL001",FALSE,TRUE,0.09,5,53,24,6,NA,NA,NA
"890","MAPL001",TRUE,TRUE,0.19,5,54,24,6,NA,NA,NA
"891","MAPL001",FALSE,TRUE,0.09,5,55,18,0,NA,NA,NA
"892","MAPL001",FALSE,TRUE,0.32,5,56,18,0,NA,NA,NA
"893","MAPL001",FALSE,TRUE,0.06,5,57,18,0,NA,NA,NA
"894","MAPL001",TRUE,TRUE,0.17,5,58,18,0,NA,NA,NA
"895","MAPL001",TRUE,TRUE,0.06,5,59,18,0,NA,NA,NA
"896","MAPL001",FALSE,TRUE,0.06,5,60,18,0,NA,NA,NA
"897","MAPL001",FALSE,TRUE,0.03,5,61,18,0,NA,NA,NA
"898","MAPL001",FALSE,TRUE,0.27,5,62,18,0,NA,NA,NA
"899","MAPL001",TRUE,TRUE,0.07,5,63,18,0,NA,NA,NA
"900","MAPL001",TRUE,TRUE,0.09,5,64,18,0,NA,NA,NA
"901","MAPL001",TRUE,TRUE,0.07,5,65,18,0,NA,NA,NA
"902","MAPL001",TRUE,TRUE,0.03,5,66,18,0,NA,NA,NA
"903","MAPL001",FALSE,TRUE,0.1,5,67,18,0,NA,NA,NA
"904","MAPL001",TRUE,TRUE,0.02,5,68,18,0,NA,NA,NA
"905","MAPL001",TRUE,TRUE,0.26,5,69,18,0,NA,NA,NA
"906","MAPL001",FALSE,TRUE,0.02,5,70,18,0,NA,NA,NA
"907","MAPL001",FALSE,TRUE,0.06,5,71,18,0,NA,NA,NA
"908","MAPL001",FALSE,TRUE,0.14,5,72,18,0,NA,NA,NA
"909","MAPL001",FALSE,TRUE,0.11,5,73,18,0,NA,NA,NA
"910","MAPL001",TRUE,TRUE,0.14,5,74,18,0,NA,NA,NA
"911","MAPL001",TRUE,TRUE,0.06,5,75,18,0,NA,NA,NA
"912","MAPL001",FALSE,TRUE,0.12,5,76,18,0,NA,NA,NA
"913","MAPL001",FALSE,TRUE,0.03,5,77,18,0,NA,NA,NA
"914","MAPL001",TRUE,TRUE,0.09,5,78,18,0,NA,NA,NA
"915","MAPL001",FALSE,TRUE,0.34,5,79,24,6,NA,NA,NA
"916","MAPL001",TRUE,TRUE,0.11,5,80,24,6,NA,NA,NA
"917","MAPL001",TRUE,TRUE,0.2,5,81,24,6,NA,NA,NA
"918","MAPL001",TRUE,TRUE,0.02,5,82,24,6,NA,NA,NA
"919","MAPL001",FALSE,TRUE,0.18,5,83,24,6,NA,NA,NA
"920","MAPL001",FALSE,FALSE,0.43,5,84,24,6,NA,NA,NA
"921","MAPL001",TRUE,TRUE,0.13,5,85,24,6,NA,NA,NA
"922","MAPL001",FALSE,TRUE,0.13,5,86,24,6,NA,NA,NA
"923","MAPL001",TRUE,TRUE,0.17,5,87,24,6,NA,NA,NA
"924","MAPL001",FALSE,TRUE,0.37,5,88,24,6,NA,NA,NA
"925","MAPL001",FALSE,TRUE,0.08,5,89,24,6,NA,NA,NA
"926","MAPL001",TRUE,TRUE,0.48,5,90,24,6,NA,NA,NA
"927","MAPL001",TRUE,TRUE,0.1,5,91,24,6,NA,NA,NA
"928","MAPL001",FALSE,FALSE,0.11,5,92,24,6,NA,NA,NA
"929","MAPL001",TRUE,TRUE,0.01,5,93,24,6,NA,NA,NA
"930","MAPL001",TRUE,TRUE,0.01,5,94,24,6,NA,NA,NA
"931","MAPL001",TRUE,TRUE,0.13,5,95,24,6,NA,NA,NA
"932","MAPL001",TRUE,TRUE,0.26,5,96,24,6,NA,NA,NA
"933","MAPL001",TRUE,TRUE,0.62,5,97,24,6,NA,NA,NA
"934","MAPL001",FALSE,TRUE,0.57,5,98,24,6,NA,NA,NA
"935","MAPL001",FALSE,TRUE,0.39,5,99,24,6,NA,NA,NA
"936","MAPL001",FALSE,TRUE,0.11,5,100,24,6,NA,NA,NA
"937","MAPL001",FALSE,FALSE,0.16,5,101,24,6,NA,NA,NA
"938","MAPL001",TRUE,TRUE,0.24,5,102,24,6,NA,NA,NA
"939","MAPL001",TRUE,TRUE,0.1,5,103,18,0,NA,NA,NA
"940","MAPL001",FALSE,TRUE,0,5,104,18,0,NA,NA,NA
"941","MAPL001",FALSE,TRUE,0.1,5,105,18,0,NA,NA,NA
"942","MAPL001",TRUE,TRUE,0.29,5,106,18,0,NA,NA,NA
"943","MAPL001",TRUE,TRUE,0.09,5,107,18,0,NA,NA,NA
"944","MAPL001",TRUE,TRUE,0.23,5,108,18,0,NA,NA,NA
"945","MAPL001",FALSE,FALSE,0.18,5,109,18,0,NA,NA,NA
"946","MAPL001",FALSE,TRUE,0.08,5,110,18,0,NA,NA,NA
"947","MAPL001",FALSE,TRUE,0.08,5,111,18,0,NA,NA,NA
"948","MAPL001",TRUE,TRUE,0.08,5,112,18,0,NA,NA,NA
"949","MAPL001",FALSE,TRUE,0.07,5,113,18,0,NA,NA,NA
"950","MAPL001",TRUE,TRUE,0.43,5,114,18,0,NA,NA,NA
"951","MAPL001",FALSE,TRUE,0.15,5,115,18,0,NA,NA,NA
"952","MAPL001",FALSE,FALSE,0.37,5,116,18,0,NA,NA,NA
"953","MAPL001",TRUE,TRUE,0.13,5,117,18,0,NA,NA,NA
"954","MAPL001",FALSE,TRUE,0.14,5,118,18,0,NA,NA,NA
"955","MAPL001",FALSE,FALSE,0.32,5,119,18,0,NA,NA,NA
"956","MAPL001",FALSE,TRUE,0.24,5,120,18,0,NA,NA,NA
"957","MAPL001",FALSE,TRUE,0.38,5,121,18,0,NA,NA,NA
"958","MAPL001",TRUE,TRUE,0.47,5,122,18,0,NA,NA,NA
"959","MAPL001",FALSE,TRUE,0.16,5,123,18,0,NA,NA,NA
"960","MAPL001",TRUE,TRUE,0.11,5,124,18,0,NA,NA,NA
"961","MAPL001",TRUE,TRUE,0.46,5,125,18,0,NA,NA,NA
"962","MAPL001",FALSE,TRUE,0.25,5,126,18,0,NA,NA,NA
"963","MAPL001",TRUE,TRUE,0.35,5,127,30,12,NA,NA,NA
"964","MAPL001",TRUE,TRUE,0.08,5,128,30,12,NA,NA,NA
"965","MAPL001",TRUE,TRUE,0.29,5,129,30,12,NA,NA,NA
"966","MAPL001",TRUE,TRUE,0.39,5,130,30,12,NA,NA,NA
"967","MAPL001",FALSE,TRUE,0.45,5,131,30,12,NA,NA,NA
"968","MAPL001",FALSE,FALSE,0.2,5,132,30,12,NA,NA,NA
"969","MAPL001",FALSE,FALSE,0.36,5,133,30,12,NA,NA,NA
"970","MAPL001",TRUE,TRUE,0.55,5,134,30,12,NA,NA,NA
"971","MAPL001",TRUE,FALSE,0.41,5,135,30,12,NA,NA,NA
"972","MAPL001",TRUE,FALSE,0.39,5,136,30,12,NA,NA,NA
"973","MAPL001",TRUE,TRUE,0.65,5,137,30,12,NA,NA,NA
"974","MAPL001",TRUE,TRUE,0.2,5,138,30,12,NA,NA,NA
"975","MAPL001",TRUE,TRUE,0.02,5,139,30,12,NA,NA,NA
"976","MAPL001",TRUE,TRUE,0.07,5,140,30,12,NA,NA,NA
"977","MAPL001",FALSE,TRUE,0.14,5,141,30,12,NA,NA,NA
"978","MAPL001",TRUE,TRUE,0.62,5,142,30,12,NA,NA,NA
"979","MAPL001",FALSE,FALSE,0.26,5,143,30,12,NA,NA,NA
"980","MAPL001",FALSE,FALSE,0.09,5,144,30,12,NA,NA,NA
"981","MAPL001",FALSE,TRUE,0.38,5,145,30,12,NA,NA,NA
"982","MAPL001",TRUE,TRUE,0.14,5,146,30,12,NA,NA,NA
"983","MAPL001",FALSE,FALSE,0.06,5,147,30,12,NA,NA,NA
"984","MAPL001",FALSE,FALSE,0.21,5,148,30,12,NA,NA,NA
"985","MAPL001",FALSE,TRUE,0.18,5,149,30,12,NA,NA,NA
"986","MAPL001",FALSE,TRUE,0.36,6,1,18,0,NA,NA,NA
"987","MAPL001",FALSE,TRUE,0.36,6,2,18,0,NA,NA,NA
"988","MAPL001",FALSE,TRUE,0.47,6,3,18,0,NA,NA,NA
"989","MAPL001",FALSE,TRUE,0.78,6,4,18,0,NA,NA,NA
"990","MAPL001",TRUE,TRUE,0.39,6,5,18,0,NA,NA,NA
"991","MAPL001",TRUE,TRUE,0.13,6,6,18,0,NA,NA,NA
"992","MAPL001",FALSE,TRUE,0.43,6,7,18,0,NA,NA,NA
"993","MAPL001",FALSE,TRUE,0.09,6,8,18,0,NA,NA,NA
"994","MAPL001",TRUE,TRUE,0.48,6,9,18,0,NA,NA,NA
"995","MAPL001",FALSE,TRUE,0.09,6,10,18,0,NA,NA,NA
"996","MAPL001",FALSE,TRUE,0.23,6,11,18,0,NA,NA,NA
"997","MAPL001",TRUE,TRUE,0.05,6,12,18,0,NA,NA,NA
"998","MAPL001",FALSE,TRUE,0.09,6,13,18,0,NA,NA,NA
"999","MAPL001",TRUE,TRUE,0.4,6,14,18,0,NA,NA,NA
"1000","MAPL001",TRUE,TRUE,0.24,6,15,18,0,NA,NA,NA
"1001","MAPL001",FALSE,TRUE,0.51,6,16,18,0,NA,NA,NA
"1002","MAPL001",FALSE,TRUE,0.17,6,17,18,0,NA,NA,NA
"1003","MAPL001",FALSE,TRUE,0.24,6,18,18,0,NA,NA,NA
"1004","MAPL001",TRUE,TRUE,0.02,6,19,18,0,NA,NA,NA
"1005","MAPL001",FALSE,TRUE,0.08,6,20,18,0,NA,NA,NA
"1006","MAPL001",TRUE,TRUE,0.17,6,21,18,0,NA,NA,NA
"1007","MAPL001",FALSE,TRUE,0.26,6,22,18,0,NA,NA,NA
"1008","MAPL001",FALSE,TRUE,0.08,6,23,18,0,NA,NA,NA
"1009","MAPL001",TRUE,TRUE,0.04,6,24,18,0,NA,NA,NA
"1010","MAPL001",TRUE,TRUE,0.05,6,25,18,0,NA,NA,NA
"1011","MAPL001",TRUE,TRUE,0,6,26,18,0,NA,NA,NA
"1012","MAPL001",TRUE,TRUE,0.04,6,27,18,0,NA,NA,NA
"1013","MAPL001",TRUE,TRUE,0.65,6,28,18,0,NA,NA,NA
"1014","MAPL001",TRUE,TRUE,0.07,6,29,18,0,NA,NA,NA
"1015","MAPL001",FALSE,TRUE,0.27,6,30,18,0,NA,NA,NA
"1016","MAPL001",FALSE,TRUE,0.38,6,31,30,12,NA,NA,NA
"1017","MAPL001",FALSE,FALSE,0.66,6,32,30,12,NA,NA,NA
"1018","MAPL001",FALSE,TRUE,0.07,6,33,30,12,NA,NA,NA
"1019","MAPL001",FALSE,TRUE,0.14,6,34,30,12,NA,NA,NA
"1020","MAPL001",TRUE,TRUE,0.18,6,35,30,12,NA,NA,NA
"1021","MAPL001",FALSE,FALSE,0.57,6,36,30,12,NA,NA,NA
"1022","MAPL001",FALSE,TRUE,0.14,6,37,30,12,NA,NA,NA
"1023","MAPL001",TRUE,FALSE,0.74,6,38,30,12,NA,NA,NA
"1024","MAPL001",FALSE,TRUE,0.35,6,39,30,12,NA,NA,NA
"1025","MAPL001",TRUE,TRUE,0.51,6,40,30,12,NA,NA,NA
"1026","MAPL001",TRUE,FALSE,0.17,6,41,30,12,NA,NA,NA
"1027","MAPL001",FALSE,TRUE,0.72,6,42,30,12,NA,NA,NA
"1028","MAPL001",FALSE,TRUE,0.28,6,43,30,12,NA,NA,NA
"1029","MAPL001",TRUE,TRUE,0.21,6,44,30,12,NA,NA,NA
"1030","MAPL001",TRUE,FALSE,0.62,6,45,30,12,NA,NA,NA
"1031","MAPL001",FALSE,TRUE,0.2,6,46,30,12,NA,NA,NA
"1032","MAPL001",TRUE,FALSE,0.13,6,47,30,12,NA,NA,NA
"1033","MAPL001",FALSE,FALSE,0.43,6,48,30,12,NA,NA,NA
"1034","MAPL001",FALSE,TRUE,0.31,6,49,30,12,NA,NA,NA
"1035","MAPL001",TRUE,FALSE,0.2,6,50,30,12,NA,NA,NA
"1036","MAPL001",TRUE,TRUE,0.44,6,51,30,12,NA,NA,NA
"1037","MAPL001",TRUE,FALSE,0.53,6,52,30,12,NA,NA,NA
"1038","MAPL001",FALSE,TRUE,1.1,6,53,30,12,NA,NA,NA
"1039","MAPL001",FALSE,TRUE,0.23,6,54,30,12,NA,NA,NA
"1040","MAPL001",TRUE,TRUE,0.11,6,55,24,6,NA,NA,NA
"1041","MAPL001",TRUE,TRUE,0.11,6,56,24,6,NA,NA,NA
"1042","MAPL001",TRUE,FALSE,0.4,6,57,24,6,NA,NA,NA
"1043","MAPL001",FALSE,TRUE,0.22,6,58,24,6,NA,NA,NA
"1044","MAPL001",TRUE,TRUE,0.06,6,59,24,6,NA,NA,NA
"1045","MAPL001",TRUE,TRUE,0.11,6,60,24,6,NA,NA,NA
"1046","MAPL001",FALSE,TRUE,0.18,6,61,24,6,NA,NA,NA
"1047","MAPL001",FALSE,FALSE,0.24,6,62,24,6,NA,NA,NA
"1048","MAPL001",FALSE,FALSE,0.77,6,63,24,6,NA,NA,NA
"1049","MAPL001",TRUE,TRUE,0.14,6,64,24,6,NA,NA,NA
"1050","MAPL001",FALSE,TRUE,0.31,6,65,24,6,NA,NA,NA
"1051","MAPL001",TRUE,TRUE,0.2,6,66,24,6,NA,NA,NA
"1052","MAPL001",TRUE,TRUE,0.15,6,67,24,6,NA,NA,NA
"1053","MAPL001",TRUE,TRUE,0.16,6,68,24,6,NA,NA,NA
"1054","MAPL001",TRUE,TRUE,0.17,6,69,24,6,NA,NA,NA
"1055","MAPL001",FALSE,TRUE,0.12,6,70,24,6,NA,NA,NA
"1056","MAPL001",FALSE,FALSE,0.24,6,71,24,6,NA,NA,NA
"1057","MAPL001",FALSE,FALSE,0.43,6,72,24,6,NA,NA,NA
"1058","MAPL001",TRUE,TRUE,0.09,6,73,24,6,NA,NA,NA
"1059","MAPL001",FALSE,TRUE,0.29,6,74,24,6,NA,NA,NA
"1060","MAPL001",FALSE,TRUE,0.23,6,75,24,6,NA,NA,NA
"1061","MAPL001",TRUE,TRUE,0.69,6,76,24,6,NA,NA,NA
"1062","MAPL001",FALSE,FALSE,0.56,6,77,24,6,NA,NA,NA
"1063","MAPL001",TRUE,TRUE,0.14,6,78,24,6,NA,NA,NA
"1064","MAPL001",FALSE,TRUE,0.2,6,79,30,12,NA,NA,NA
"1065","MAPL001",TRUE,TRUE,0.2,6,80,30,12,NA,NA,NA
"1066","MAPL001",TRUE,FALSE,0.36,6,81,30,12,NA,NA,NA
"1067","MAPL001",TRUE,TRUE,0.14,6,82,30,12,NA,NA,NA
"1068","MAPL001",FALSE,FALSE,0.34,6,83,30,12,NA,NA,NA
"1069","MAPL001",TRUE,TRUE,0.77,6,84,30,12,NA,NA,NA
"1070","MAPL001",TRUE,FALSE,0.880000000000001,6,85,30,12,NA,NA,NA
"1071","MAPL001",TRUE,TRUE,0.51,6,86,30,12,NA,NA,NA
"1072","MAPL001",TRUE,TRUE,0.25,6,87,30,12,NA,NA,NA
"1073","MAPL001",FALSE,FALSE,0.46,6,88,30,12,NA,NA,NA
"1074","MAPL001",TRUE,TRUE,0.42,6,89,30,12,NA,NA,NA
"1075","MAPL001",TRUE,FALSE,0.09,6,90,30,12,NA,NA,NA
"1076","MAPL001",TRUE,FALSE,0.4,6,91,30,12,NA,NA,NA
"1077","MAPL001",FALSE,TRUE,0.48,6,92,30,12,NA,NA,NA
"1078","MAPL001",FALSE,FALSE,0.55,6,93,30,12,NA,NA,NA
"1079","MAPL001",TRUE,TRUE,0.78,6,94,30,12,NA,NA,NA
"1080","MAPL001",TRUE,TRUE,0.11,6,95,30,12,NA,NA,NA
"1081","MAPL001",TRUE,TRUE,0.23,6,96,30,12,NA,NA,NA
"1082","MAPL001",FALSE,FALSE,0.21,6,97,30,12,NA,NA,NA
"1083","MAPL001",TRUE,TRUE,0.37,6,98,30,12,NA,NA,NA
"1084","MAPL001",FALSE,TRUE,0.63,6,99,30,12,NA,NA,NA
"1085","MAPL001",FALSE,FALSE,0.55,6,100,30,12,NA,NA,NA
"1086","MAPL001",TRUE,FALSE,0.49,6,101,30,12,NA,NA,NA
"1087","MAPL001",TRUE,TRUE,0.66,6,102,30,12,NA,NA,NA
"1088","MAPL001",FALSE,TRUE,0.21,6,103,24,6,NA,NA,NA
"1089","MAPL001",TRUE,TRUE,0.29,6,104,24,6,NA,NA,NA
"1090","MAPL001",TRUE,TRUE,0.1,6,105,24,6,NA,NA,NA
"1091","MAPL001",TRUE,TRUE,0.34,6,106,24,6,NA,NA,NA
"1092","MAPL001",FALSE,FALSE,0.78,6,107,24,6,NA,NA,NA
"1093","MAPL001",FALSE,TRUE,0.49,6,108,24,6,NA,NA,NA
"1094","MAPL001",TRUE,TRUE,0.12,6,109,24,6,NA,NA,NA
"1095","MAPL001",FALSE,FALSE,0.15,6,110,24,6,NA,NA,NA
"1096","MAPL001",FALSE,TRUE,0.17,6,111,24,6,NA,NA,NA
"1097","MAPL001",FALSE,FALSE,0.39,6,112,24,6,NA,NA,NA
"1098","MAPL001",TRUE,TRUE,0.23,6,113,24,6,NA,NA,NA
"1099","MAPL001",TRUE,TRUE,0.21,6,114,24,6,NA,NA,NA
"1100","MAPL001",FALSE,TRUE,0.28,6,115,24,6,NA,NA,NA
"1101","MAPL001",FALSE,FALSE,0.35,6,116,24,6,NA,NA,NA
"1102","MAPL001",TRUE,FALSE,0.54,6,117,24,6,NA,NA,NA
"1103","MAPL001",FALSE,TRUE,0.820000000000001,6,118,24,6,NA,NA,NA
"1104","MAPL001",FALSE,TRUE,0.24,6,119,24,6,NA,NA,NA
"1105","MAPL001",TRUE,TRUE,0.21,6,120,24,6,NA,NA,NA
"1106","MAPL001",TRUE,TRUE,0.23,6,121,24,6,NA,NA,NA
"1107","MAPL001",FALSE,FALSE,0.05,6,122,24,6,NA,NA,NA
"1108","MAPL001",TRUE,TRUE,0.12,6,123,24,6,NA,NA,NA
"1109","MAPL001",TRUE,TRUE,0.13,6,124,24,6,NA,NA,NA
"1110","MAPL001",FALSE,FALSE,0.21,6,125,24,6,NA,NA,NA
"1111","MAPL001",TRUE,TRUE,0,6,126,24,6,NA,NA,NA
"1112","MAPL001",TRUE,TRUE,0.07,6,127,18,0,NA,NA,NA
"1113","MAPL001",TRUE,TRUE,0.09,6,128,18,0,NA,NA,NA
"1114","MAPL001",TRUE,TRUE,0.06,6,129,18,0,NA,NA,NA
"1115","MAPL001",FALSE,TRUE,0.39,6,130,18,0,NA,NA,NA
"1116","MAPL001",TRUE,TRUE,0.51,6,131,18,0,NA,NA,NA
"1117","MAPL001",FALSE,FALSE,0.21,6,132,18,0,NA,NA,NA
"1118","MAPL001",TRUE,TRUE,0.56,6,133,18,0,NA,NA,NA
"1119","MAPL001",TRUE,TRUE,0.13,6,134,18,0,NA,NA,NA
"1120","MAPL001",FALSE,TRUE,0.62,6,135,18,0,NA,NA,NA
"1121","MAPL001",FALSE,TRUE,1.46,6,136,18,0,NA,NA,NA
"1122","MAPL001",TRUE,TRUE,0.81,6,137,18,0,NA,NA,NA
"1123","MAPL001",FALSE,TRUE,0.13,6,138,18,0,NA,NA,NA
"1124","MAPL001",TRUE,TRUE,0.21,6,139,18,0,NA,NA,NA
"1125","MAPL001",TRUE,TRUE,0,6,140,18,0,NA,NA,NA
"1126","MAPL001",FALSE,FALSE,0.64,6,141,18,0,NA,NA,NA
"1127","MAPL001",TRUE,TRUE,0.05,6,142,18,0,NA,NA,NA
"1128","MAPL001",TRUE,FALSE,0.59,6,143,18,0,NA,NA,NA
"1129","MAPL001",TRUE,TRUE,0.22,6,144,18,0,NA,NA,NA
"1130","MAPL001",TRUE,TRUE,0.09,6,145,18,0,NA,NA,NA
"1131","MAPL001",TRUE,TRUE,0.4,6,146,18,0,NA,NA,NA
"1132","MAPL001",TRUE,TRUE,0.39,6,147,18,0,NA,NA,NA
"1133","MAPL001",FALSE,TRUE,0.2,6,148,18,0,NA,NA,NA
"1134","MAPL001",FALSE,FALSE,0.55,6,149,18,0,NA,NA,NA
"1135","MAPL001",FALSE,TRUE,0.36,7,1,18,0,NA,NA,NA
"1136","MAPL001",TRUE,TRUE,0.820000000000001,7,2,18,0,NA,NA,NA
"1137","MAPL001",TRUE,TRUE,0.32,7,3,18,0,NA,NA,NA
"1138","MAPL001",TRUE,TRUE,0.19,7,4,18,0,NA,NA,NA
"1139","MAPL001",TRUE,TRUE,0.05,7,5,18,0,NA,NA,NA
"1140","MAPL001",FALSE,TRUE,0.1,7,6,18,0,NA,NA,NA
"1141","MAPL001",FALSE,FALSE,0.09,7,7,24,6,NA,NA,NA
"1142","MAPL001",TRUE,TRUE,0.05,7,8,24,6,NA,NA,NA
"1143","MAPL001",FALSE,TRUE,0.2,7,9,24,6,NA,NA,NA
"1144","MAPL001",FALSE,TRUE,0.19,7,10,24,6,NA,NA,NA
"1145","MAPL001",TRUE,FALSE,0.31,7,11,24,6,NA,NA,NA
"1146","MAPL001",FALSE,TRUE,0.2,7,12,24,6,NA,NA,NA
"1147","MAPL001",TRUE,TRUE,0.49,7,13,24,6,NA,NA,NA
"1148","MAPL001",TRUE,TRUE,0.49,7,14,24,6,NA,NA,NA
"1149","MAPL001",FALSE,TRUE,0.31,7,15,24,6,NA,NA,NA
"1150","MAPL001",FALSE,FALSE,0.04,7,16,24,6,NA,NA,NA
"1151","MAPL001",FALSE,TRUE,0.31,7,17,24,6,NA,NA,NA
"1152","MAPL001",TRUE,TRUE,0.34,7,18,24,6,NA,NA,NA
"1153","MAPL001",TRUE,TRUE,0.16,7,19,24,6,NA,NA,NA
"1154","MAPL001",FALSE,TRUE,0.05,7,20,24,6,NA,NA,NA
"1155","MAPL001",TRUE,TRUE,0.09,7,21,24,6,NA,NA,NA
"1156","MAPL001",FALSE,TRUE,0.17,7,22,24,6,NA,NA,NA
"1157","MAPL001",TRUE,TRUE,0.1,7,23,24,6,NA,NA,NA
"1158","MAPL001",FALSE,FALSE,0.46,7,24,24,6,NA,NA,NA
"1159","MAPL001",FALSE,TRUE,0.04,7,25,24,6,NA,NA,NA
"1160","MAPL001",TRUE,FALSE,0.41,7,26,24,6,NA,NA,NA
"1161","MAPL001",FALSE,TRUE,0.38,7,27,24,6,NA,NA,NA
"1162","MAPL001",FALSE,TRUE,0.31,7,28,24,6,NA,NA,NA
"1163","MAPL001",FALSE,FALSE,0.05,7,29,24,6,NA,NA,NA
"1164","MAPL001",TRUE,TRUE,0.15,7,30,24,6,NA,NA,NA
"1165","MAPL001",TRUE,TRUE,0.13,7,31,18,0,NA,NA,NA
"1166","MAPL001",FALSE,TRUE,0.04,7,32,18,0,NA,NA,NA
"1167","MAPL001",TRUE,FALSE,0,7,33,18,0,NA,NA,NA
"1168","MAPL001",FALSE,TRUE,0.12,7,34,18,0,NA,NA,NA
"1169","MAPL001",FALSE,TRUE,0.08,7,35,18,0,NA,NA,NA
"1170","MAPL001",TRUE,TRUE,0.09,7,36,18,0,NA,NA,NA
"1171","MAPL001",FALSE,TRUE,0.33,7,37,18,0,NA,NA,NA
"1172","MAPL001",FALSE,TRUE,0.08,7,38,18,0,NA,NA,NA
"1173","MAPL001",FALSE,TRUE,0.840000000000001,7,39,18,0,NA,NA,NA
"1174","MAPL001",FALSE,TRUE,0.5,7,40,18,0,NA,NA,NA
"1175","MAPL001",FALSE,TRUE,0.28,7,41,18,0,NA,NA,NA
"1176","MAPL001",FALSE,TRUE,0.11,7,42,18,0,NA,NA,NA
"1177","MAPL001",FALSE,FALSE,0.4,7,43,18,0,NA,NA,NA
"1178","MAPL001",FALSE,TRUE,0.14,7,44,18,0,NA,NA,NA
"1179","MAPL001",FALSE,TRUE,0.08,7,45,18,0,NA,NA,NA
"1180","MAPL001",TRUE,TRUE,0.49,7,46,18,0,NA,NA,NA
"1181","MAPL001",FALSE,TRUE,0.1,7,47,18,0,NA,NA,NA
"1182","MAPL001",TRUE,FALSE,0.5,7,48,18,0,NA,NA,NA
"1183","MAPL001",FALSE,TRUE,0.2,7,49,18,0,NA,NA,NA
"1184","MAPL001",FALSE,TRUE,0.11,7,50,18,0,NA,NA,NA
"1185","MAPL001",TRUE,TRUE,0.07,7,51,18,0,NA,NA,NA
"1186","MAPL001",FALSE,FALSE,0.04,7,52,18,0,NA,NA,NA
"1187","MAPL001",TRUE,TRUE,0.28,7,53,18,0,NA,NA,NA
"1188","MAPL001",TRUE,TRUE,0.07,7,54,18,0,NA,NA,NA
"1189","MAPL001",FALSE,FALSE,0.14,7,55,30,12,NA,NA,NA
"1190","MAPL001",FALSE,TRUE,0.3,7,56,30,12,NA,NA,NA
"1191","MAPL001",TRUE,TRUE,0.21,7,57,30,12,NA,NA,NA
"1192","MAPL001",TRUE,TRUE,0.26,7,58,30,12,NA,NA,NA
"1193","MAPL001",FALSE,FALSE,0.37,7,59,30,12,NA,NA,NA
"1194","MAPL001",FALSE,FALSE,1.21,7,60,30,12,NA,NA,NA
"1195","MAPL001",TRUE,FALSE,1.98,7,61,30,12,NA,NA,NA
"1196","MAPL001",TRUE,FALSE,0.920000000000001,7,62,30,12,NA,NA,NA
"1197","MAPL001",TRUE,TRUE,0.49,7,63,30,12,NA,NA,NA
"1198","MAPL001",FALSE,FALSE,0.22,7,64,30,12,NA,NA,NA
"1199","MAPL001",FALSE,TRUE,0.14,7,65,30,12,NA,NA,NA
"1200","MAPL001",FALSE,TRUE,0.16,7,66,30,12,NA,NA,NA
"1201","MAPL001",FALSE,FALSE,0.11,7,67,30,12,NA,NA,NA
"1202","MAPL001",FALSE,FALSE,0.14,7,68,30,12,NA,NA,NA
"1203","MAPL001",TRUE,TRUE,0.46,7,69,30,12,NA,NA,NA
"1204","MAPL001",FALSE,TRUE,0.16,7,70,30,12,NA,NA,NA
"1205","MAPL001",TRUE,FALSE,0.14,7,71,30,12,NA,NA,NA
"1206","MAPL001",FALSE,FALSE,0.49,7,72,30,12,NA,NA,NA
"1207","MAPL001",TRUE,TRUE,0.16,7,73,30,12,NA,NA,NA
"1208","MAPL001",TRUE,FALSE,1.52,7,74,30,12,NA,NA,NA
"1209","MAPL001",FALSE,FALSE,0.44,7,75,30,12,NA,NA,NA
"1210","MAPL001",TRUE,TRUE,0.34,7,76,30,12,NA,NA,NA
"1211","MAPL001",TRUE,FALSE,0.3,7,77,30,12,NA,NA,NA
"1212","MAPL001",FALSE,FALSE,0.41,7,78,30,12,NA,NA,NA
"1213","MAPL001",TRUE,TRUE,0.16,7,79,18,0,NA,NA,NA
"1214","MAPL001",FALSE,FALSE,0.12,7,80,18,0,NA,NA,NA
"1215","MAPL001",FALSE,TRUE,0.11,7,81,18,0,NA,NA,NA
"1216","MAPL001",TRUE,TRUE,0.15,7,82,18,0,NA,NA,NA
"1217","MAPL001",TRUE,TRUE,0.21,7,83,18,0,NA,NA,NA
"1218","MAPL001",FALSE,TRUE,0.14,7,84,18,0,NA,NA,NA
"1219","MAPL001",FALSE,TRUE,0.08,7,85,18,0,NA,NA,NA
"1220","MAPL001",TRUE,TRUE,0.24,7,86,18,0,NA,NA,NA
"1221","MAPL001",TRUE,FALSE,0.09,7,87,18,0,NA,NA,NA
"1222","MAPL001",TRUE,TRUE,0.21,7,88,18,0,NA,NA,NA
"1223","MAPL001",FALSE,TRUE,0.08,7,89,18,0,NA,NA,NA
"1224","MAPL001",TRUE,TRUE,0.33,7,90,18,0,NA,NA,NA
"1225","MAPL001",TRUE,TRUE,0.27,7,91,18,0,NA,NA,NA
"1226","MAPL001",TRUE,TRUE,0.09,7,92,18,0,NA,NA,NA
"1227","MAPL001",FALSE,TRUE,0.19,7,93,18,0,NA,NA,NA
"1228","MAPL001",FALSE,FALSE,0.2,7,94,18,0,NA,NA,NA
"1229","MAPL001",FALSE,TRUE,0.09,7,95,18,0,NA,NA,NA
"1230","MAPL001",TRUE,TRUE,0.42,7,96,18,0,NA,NA,NA
"1231","MAPL001",FALSE,TRUE,0.25,7,97,18,0,NA,NA,NA
"1232","MAPL001",TRUE,TRUE,0.1,7,98,18,0,NA,NA,NA
"1233","MAPL001",TRUE,TRUE,0.16,7,99,18,0,NA,NA,NA
"1234","MAPL001",TRUE,FALSE,0.46,7,100,18,0,NA,NA,NA
"1235","MAPL001",FALSE,TRUE,0,7,101,18,0,NA,NA,NA
"1236","MAPL001",FALSE,TRUE,0.08,7,102,18,0,NA,NA,NA
"1237","MAPL001",TRUE,TRUE,0.36,7,103,30,12,NA,NA,NA
"1238","MAPL001",TRUE,TRUE,0.67,7,104,30,12,NA,NA,NA
"1239","MAPL001",FALSE,TRUE,0.69,7,105,30,12,NA,NA,NA
"1240","MAPL001",FALSE,FALSE,0.860000000000001,7,106,30,12,NA,NA,NA
"1241","MAPL001",TRUE,FALSE,0.53,7,107,30,12,NA,NA,NA
"1242","MAPL001",TRUE,TRUE,0.31,7,108,30,12,NA,NA,NA
"1243","MAPL001",FALSE,TRUE,0.1,7,109,30,12,NA,NA,NA
"1244","MAPL001",FALSE,FALSE,0.13,7,110,30,12,NA,NA,NA
"1245","MAPL001",FALSE,FALSE,0.3,7,111,30,12,NA,NA,NA
"1246","MAPL001",TRUE,TRUE,0.2,7,112,30,12,NA,NA,NA
"1247","MAPL001",FALSE,FALSE,0.16,7,113,30,12,NA,NA,NA
"1248","MAPL001",TRUE,FALSE,0.56,7,114,30,12,NA,NA,NA
"1249","MAPL001",TRUE,TRUE,0.41,7,115,30,12,NA,NA,NA
"1250","MAPL001",TRUE,TRUE,0.28,7,116,30,12,NA,NA,NA
"1251","MAPL001",FALSE,TRUE,0.22,7,117,30,12,NA,NA,NA
"1252","MAPL001",TRUE,TRUE,0.48,7,118,30,12,NA,NA,NA
"1253","MAPL001",TRUE,FALSE,0.35,7,119,30,12,NA,NA,NA
"1254","MAPL001",FALSE,FALSE,0.26,7,120,30,12,NA,NA,NA
"1255","MAPL001",FALSE,TRUE,0.74,7,121,30,12,NA,NA,NA
"1256","MAPL001",TRUE,TRUE,0.47,7,122,30,12,NA,NA,NA
"1257","MAPL001",FALSE,TRUE,0.24,7,123,30,12,NA,NA,NA
"1258","MAPL001",FALSE,TRUE,0.5,7,124,30,12,NA,NA,NA
"1259","MAPL001",FALSE,FALSE,0.41,7,125,30,12,NA,NA,NA
"1260","MAPL001",TRUE,FALSE,0.59,7,126,30,12,NA,NA,NA
"1261","MAPL001",TRUE,TRUE,0.2,7,127,24,6,NA,NA,NA
"1262","MAPL001",FALSE,TRUE,0.19,7,128,24,6,NA,NA,NA
"1263","MAPL001",FALSE,TRUE,0.11,7,129,24,6,NA,NA,NA
"1264","MAPL001",FALSE,TRUE,0.33,7,130,24,6,NA,NA,NA
"1265","MAPL001",FALSE,FALSE,0.13,7,131,24,6,NA,NA,NA
"1266","MAPL001",FALSE,TRUE,0.03,7,132,24,6,NA,NA,NA
"1267","MAPL001",FALSE,FALSE,0.24,7,133,24,6,NA,NA,NA
"1268","MAPL001",FALSE,TRUE,0.17,7,134,24,6,NA,NA,NA
"1269","MAPL001",TRUE,FALSE,0.17,7,135,24,6,NA,NA,NA
"1270","MAPL001",TRUE,TRUE,0.1,7,136,24,6,NA,NA,NA
"1271","MAPL001",TRUE,FALSE,0.71,7,137,24,6,NA,NA,NA
"1272","MAPL001",TRUE,TRUE,0.1,7,138,24,6,NA,NA,NA
"1273","MAPL001",FALSE,TRUE,0.13,7,139,24,6,NA,NA,NA
"1274","MAPL001",FALSE,FALSE,0.56,7,140,24,6,NA,NA,NA
"1275","MAPL001",TRUE,TRUE,0.15,7,141,24,6,NA,NA,NA
"1276","MAPL001",TRUE,FALSE,0.46,7,142,24,6,NA,NA,NA
"1277","MAPL001",TRUE,TRUE,0.12,7,143,24,6,NA,NA,NA
"1278","MAPL001",FALSE,FALSE,0.18,7,144,24,6,NA,NA,NA
"1279","MAPL001",FALSE,TRUE,0.42,7,145,24,6,NA,NA,NA
"1280","MAPL001",FALSE,FALSE,0.41,7,146,24,6,NA,NA,NA
"1281","MAPL001",FALSE,TRUE,0.15,7,147,24,6,NA,NA,NA
"1282","MAPL001",TRUE,TRUE,0.07,7,148,24,6,NA,NA,NA
"1283","MAPL001",FALSE,FALSE,0.12,7,149,24,6,NA,NA,NA
"1284","MAPL001",TRUE,TRUE,0.62,7,150,24,6,NA,NA,NA
"1285","MAPL001R",FALSE,TRUE,0.08,1,1,0,0,NA,NA,NA
"1286","MAPL001R",FALSE,TRUE,0.01,1,2,0,0,NA,NA,NA
"1287","MAPL001R",FALSE,TRUE,0.56,1,3,0,0,NA,NA,NA
"1288","MAPL001R",TRUE,TRUE,0.44,1,4,1,0,NA,NA,NA
"1289","MAPL001R",FALSE,TRUE,0.1,1,5,1,0,NA,NA,NA
"1290","MAPL001R",FALSE,TRUE,0.51,1,6,1,0,NA,NA,NA
"1291","MAPL001R",TRUE,TRUE,0.1,1,7,2,0,NA,NA,NA
"1292","MAPL001R",FALSE,TRUE,0.09,1,8,2,0,NA,NA,NA
"1293","MAPL001R",FALSE,TRUE,0.41,1,9,2,0,NA,NA,NA
"1294","MAPL001R",FALSE,TRUE,0.37,1,10,3,0,NA,NA,NA
"1295","MAPL001R",FALSE,TRUE,0,1,11,3,0,NA,NA,NA
"1296","MAPL001R",TRUE,TRUE,0.05,1,12,3,0,NA,NA,NA
"1297","MAPL001R",FALSE,TRUE,0,1,13,4,0,NA,NA,NA
"1298","MAPL001R",TRUE,TRUE,0.01,1,14,4,0,NA,NA,NA
"1299","MAPL001R",TRUE,TRUE,0.38,1,15,4,0,NA,NA,NA
"1300","MAPL001R",FALSE,TRUE,0.26,1,16,5,0,NA,NA,NA
"1301","MAPL001R",TRUE,TRUE,0.05,1,17,5,0,NA,NA,NA
"1302","MAPL001R",FALSE,TRUE,0.33,1,18,5,0,NA,NA,NA
"1303","MAPL001R",FALSE,TRUE,0.31,1,19,6,0,NA,NA,NA
"1304","MAPL001R",TRUE,TRUE,0.04,1,20,6,0,NA,NA,NA
"1305","MAPL001R",FALSE,TRUE,0.27,1,21,6,0,NA,NA,NA
"1306","MAPL001R",FALSE,TRUE,0.14,1,22,7,0,NA,NA,NA
"1307","MAPL001R",TRUE,TRUE,0,1,23,7,0,NA,NA,NA
"1308","MAPL001R",TRUE,TRUE,0.08,1,24,7,0,NA,NA,NA
"1309","MAPL001R",TRUE,TRUE,0.08,1,25,8,0,NA,NA,NA
"1310","MAPL001R",FALSE,TRUE,0.01,1,26,8,0,NA,NA,NA
"1311","MAPL001R",FALSE,TRUE,0.2,1,27,8,0,NA,NA,NA
"1312","MAPL001R",FALSE,TRUE,0.12,1,28,9,0,NA,NA,NA
"1313","MAPL001R",FALSE,TRUE,0.24,1,29,9,0,NA,NA,NA
"1314","MAPL001R",FALSE,TRUE,0.09,1,30,9,0,NA,NA,NA
"1315","MAPL001R",FALSE,TRUE,0.42,1,31,10,0,NA,NA,NA
"1316","MAPL001R",TRUE,TRUE,0.17,1,32,10,0,NA,NA,NA
"1317","MAPL001R",FALSE,TRUE,0.34,1,33,10,0,NA,NA,NA
"1318","MAPL001R",TRUE,TRUE,0.09,1,34,11,0,NA,NA,NA
"1319","MAPL001R",TRUE,TRUE,0.28,1,35,11,0,NA,NA,NA
"1320","MAPL001R",TRUE,TRUE,0.05,1,36,11,0,NA,NA,NA
"1321","MAPL001R",TRUE,TRUE,0.32,1,37,12,0,NA,NA,NA
"1322","MAPL001R",TRUE,TRUE,0.15,1,38,12,0,NA,NA,NA
"1323","MAPL001R",FALSE,TRUE,0.17,1,39,12,0,NA,NA,NA
"1324","MAPL001R",FALSE,TRUE,0.17,1,40,13,0,NA,NA,NA
"1325","MAPL001R",TRUE,TRUE,0.26,1,41,13,0,NA,NA,NA
"1326","MAPL001R",FALSE,TRUE,0.12,1,42,13,0,NA,NA,NA
"1327","MAPL001R",TRUE,TRUE,0.37,1,43,14,0,NA,NA,NA
"1328","MAPL001R",TRUE,TRUE,0.17,1,44,14,0,NA,NA,NA
"1329","MAPL001R",FALSE,TRUE,0.08,1,45,14,0,NA,NA,NA
"1330","MAPL001R",TRUE,TRUE,0.11,1,46,15,0,NA,NA,NA
"1331","MAPL001R",TRUE,TRUE,0.34,1,47,15,0,NA,NA,NA
"1332","MAPL001R",TRUE,TRUE,0.04,1,48,15,0,NA,NA,NA
"1333","MAPL001R",FALSE,TRUE,0.09,1,49,16,0,NA,NA,NA
"1334","MAPL001R",TRUE,TRUE,0.07,1,50,16,0,NA,NA,NA
"1335","MAPL001R",TRUE,TRUE,0.17,1,51,16,0,NA,NA,NA
"1336","MAPL001R",FALSE,TRUE,0.12,1,52,17,0,NA,NA,NA
"1337","MAPL001R",TRUE,TRUE,0.14,1,53,17,0,NA,NA,NA
"1338","MAPL001R",TRUE,TRUE,0.22,1,54,17,0,NA,NA,NA
"1339","MAPL001R",FALSE,TRUE,0.39,1,55,18,0,NA,NA,NA
"1340","MAPL001R",FALSE,TRUE,0.27,1,56,18,0,NA,NA,NA
"1341","MAPL001R",TRUE,TRUE,0,1,57,18,0,NA,NA,NA
"1342","MAPL001R",FALSE,TRUE,0.04,1,58,19,0,NA,NA,NA
"1343","MAPL001R",TRUE,TRUE,0.15,1,59,19,0,NA,NA,NA
"1344","MAPL001R",FALSE,TRUE,0.09,1,60,19,0,NA,NA,NA
"1345","MAPL001R",TRUE,TRUE,0.58,1,61,20,0,NA,NA,NA
"1346","MAPL001R",TRUE,TRUE,0.1,1,62,20,0,NA,NA,NA
"1347","MAPL001R",TRUE,TRUE,0.21,1,63,20,0,NA,NA,NA
"1348","MAPL001R",TRUE,TRUE,0.17,1,64,21,0,NA,NA,NA
"1349","MAPL001R",TRUE,TRUE,0.04,1,65,21,0,NA,NA,NA
"1350","MAPL001R",TRUE,TRUE,0.04,1,66,21,0,NA,NA,NA
"1351","MAPL001R",TRUE,TRUE,0.18,1,67,22,0,NA,NA,NA
"1352","MAPL001R",FALSE,TRUE,0.12,1,68,22,0,NA,NA,NA
"1353","MAPL001R",TRUE,TRUE,0.12,1,69,22,0,NA,NA,NA
"1354","MAPL001R",FALSE,FALSE,0.18,1,70,23,0,NA,NA,NA
"1355","MAPL001R",TRUE,TRUE,0.35,1,71,22,0,NA,NA,NA
"1356","MAPL001R",TRUE,TRUE,0.13,1,72,22,0,NA,NA,NA
"1357","MAPL001R",TRUE,TRUE,0.03,1,73,22,0,NA,NA,NA
"1358","MAPL001R",TRUE,TRUE,0.22,1,74,23,0,NA,NA,NA
"1359","MAPL001R",FALSE,TRUE,0.27,1,75,23,0,NA,NA,NA
"1360","MAPL001R",FALSE,FALSE,0.55,1,76,23,0,NA,NA,NA
"1361","MAPL001R",TRUE,FALSE,0.35,1,77,22,0,NA,NA,NA
"1362","MAPL001R",TRUE,TRUE,0.19,1,78,21,0,NA,NA,NA
"1363","MAPL001R",FALSE,TRUE,0.47,1,79,21,0,NA,NA,NA
"1364","MAPL001R",FALSE,TRUE,0.23,1,80,21,0,NA,NA,NA
"1365","MAPL001R",TRUE,TRUE,0.11,1,81,22,0,NA,NA,NA
"1366","MAPL001R",FALSE,TRUE,0.2,1,82,22,0,NA,NA,NA
"1367","MAPL001R",FALSE,FALSE,0.07,1,83,22,0,NA,NA,NA
"1368","MAPL001R",TRUE,FALSE,0.2,1,84,21,0,NA,NA,NA
"1369","MAPL001R",FALSE,FALSE,0.09,1,85,20,0,NA,NA,NA
"1370","MAPL001R",FALSE,TRUE,0.19,1,86,19,0,NA,NA,NA
"1371","MAPL001R",TRUE,TRUE,0.13,1,87,19,0,NA,NA,NA
"1372","MAPL001R",TRUE,FALSE,0.21,1,88,19,0,NA,NA,NA
"1373","MAPL001R",TRUE,TRUE,0.22,1,89,18,0,NA,NA,NA
"1374","MAPL001R",TRUE,TRUE,0.2,1,90,18,0,NA,NA,NA
"1375","MAPL001R",FALSE,FALSE,0.16,1,91,18,0,NA,NA,NA
"1376","MAPL001R",FALSE,TRUE,0.2,1,92,17,0,NA,NA,NA
"1377","MAPL001R",FALSE,TRUE,0.17,1,93,17,0,NA,NA,NA
"1378","MAPL001R",FALSE,TRUE,0.24,1,94,17,0,NA,NA,NA
"1379","MAPL001R",FALSE,TRUE,0.19,1,95,18,0,NA,NA,NA
"1380","MAPL001R",TRUE,TRUE,0.17,1,96,18,0,NA,NA,NA
"1381","MAPL001R",TRUE,TRUE,0.37,1,97,18,0,NA,NA,NA
"1382","MAPL001R",FALSE,TRUE,0.08,2,1,16,0,NA,NA,NA
"1383","MAPL001R",TRUE,TRUE,0.38,2,2,16,0,NA,NA,NA
"1384","MAPL001R",TRUE,TRUE,0.06,2,3,16,0,NA,NA,NA
"1385","MAPL001R",TRUE,TRUE,0.13,2,4,16,1,NA,NA,NA
"1386","MAPL001R",FALSE,TRUE,0.19,2,5,16,1,NA,NA,NA
"1387","MAPL001R",FALSE,TRUE,0.11,2,6,16,1,NA,NA,NA
"1388","MAPL001R",TRUE,TRUE,0.06,2,7,16,2,NA,NA,NA
"1389","MAPL001R",TRUE,TRUE,0.17,2,8,16,2,NA,NA,NA
"1390","MAPL001R",TRUE,FALSE,0.32,2,9,16,2,NA,NA,NA
"1391","MAPL001R",FALSE,TRUE,0.17,2,10,16,1,NA,NA,NA
"1392","MAPL001R",FALSE,TRUE,0.21,2,11,16,1,NA,NA,NA
"1393","MAPL001R",FALSE,TRUE,0.18,2,12,16,1,NA,NA,NA
"1394","MAPL001R",TRUE,TRUE,0.08,2,13,16,2,NA,NA,NA
"1395","MAPL001R",TRUE,TRUE,0.09,2,14,16,2,NA,NA,NA
"1396","MAPL001R",FALSE,TRUE,0.22,2,15,16,2,NA,NA,NA
"1397","MAPL001R",FALSE,TRUE,0.15,2,16,16,3,NA,NA,NA
"1398","MAPL001R",FALSE,FALSE,0.27,2,17,16,3,NA,NA,NA
"1399","MAPL001R",FALSE,TRUE,0.09,2,18,16,2,NA,NA,NA
"1400","MAPL001R",TRUE,TRUE,0.24,2,19,16,2,NA,NA,NA
"1401","MAPL001R",TRUE,TRUE,0.07,2,20,16,2,NA,NA,NA
"1402","MAPL001R",TRUE,TRUE,0.06,2,21,16,3,NA,NA,NA
"1403","MAPL001R",TRUE,TRUE,0.17,2,22,16,3,NA,NA,NA
"1404","MAPL001R",FALSE,TRUE,0.05,2,23,16,3,NA,NA,NA
"1405","MAPL001R",FALSE,TRUE,0.11,2,24,16,4,NA,NA,NA
"1406","MAPL001R",FALSE,TRUE,0.4,2,25,16,4,NA,NA,NA
"1407","MAPL001R",FALSE,FALSE,0.18,2,26,16,4,NA,NA,NA
"1408","MAPL001R",TRUE,TRUE,0.09,2,27,16,3,NA,NA,NA
"1409","MAPL001R",TRUE,TRUE,0.29,2,28,16,3,NA,NA,NA
"1410","MAPL001R",TRUE,TRUE,0.02,2,29,16,3,NA,NA,NA
"1411","MAPL001R",TRUE,TRUE,0.11,2,30,16,4,NA,NA,NA
"1412","MAPL001R",FALSE,TRUE,0.15,2,31,16,4,NA,NA,NA
"1413","MAPL001R",TRUE,TRUE,0.29,2,32,16,4,NA,NA,NA
"1414","MAPL001R",FALSE,TRUE,0.3,2,33,16,5,NA,NA,NA
"1415","MAPL001R",TRUE,TRUE,0.06,2,34,16,5,NA,NA,NA
"1416","MAPL001R",TRUE,TRUE,0.15,2,35,16,5,NA,NA,NA
"1417","MAPL001R",FALSE,FALSE,0.24,2,36,16,6,NA,NA,NA
"1418","MAPL001R",TRUE,TRUE,0.22,2,37,16,5,NA,NA,NA
"1419","MAPL001R",FALSE,TRUE,0.24,2,38,16,5,NA,NA,NA
"1420","MAPL001R",FALSE,TRUE,0.39,2,39,16,5,NA,NA,NA
"1421","MAPL001R",TRUE,TRUE,0.12,2,40,16,6,NA,NA,NA
"1422","MAPL001R",TRUE,TRUE,0.29,2,41,16,6,NA,NA,NA
"1423","MAPL001R",TRUE,TRUE,0.16,2,42,16,6,NA,NA,NA
"1424","MAPL001R",FALSE,FALSE,0.29,2,43,16,7,NA,NA,NA
"1425","MAPL001R",FALSE,TRUE,0.17,2,44,16,6,NA,NA,NA
"1426","MAPL001R",TRUE,TRUE,0.21,2,45,16,6,NA,NA,NA
"1427","MAPL001R",TRUE,TRUE,0.11,2,46,16,6,NA,NA,NA
"1428","MAPL001R",FALSE,TRUE,0.22,2,47,16,7,NA,NA,NA
"1429","MAPL001R",FALSE,TRUE,0.18,2,48,16,7,NA,NA,NA
"1430","MAPL001R",FALSE,TRUE,0.25,2,49,16,7,NA,NA,NA
"1431","MAPL001R",TRUE,TRUE,0.1,2,50,16,8,NA,NA,NA
"1432","MAPL001R",FALSE,TRUE,0.29,2,51,16,8,NA,NA,NA
"1433","MAPL001R",FALSE,FALSE,0.33,2,52,16,8,NA,NA,NA
"1434","MAPL001R",TRUE,TRUE,0.06,2,53,16,7,NA,NA,NA
"1435","MAPL001R",FALSE,TRUE,0.15,2,54,16,7,NA,NA,NA
"1436","MAPL001R",TRUE,TRUE,0.1,2,55,16,7,NA,NA,NA
"1437","MAPL001R",FALSE,TRUE,0.46,2,56,16,8,NA,NA,NA
"1438","MAPL001R",FALSE,TRUE,0.39,2,57,16,8,NA,NA,NA
"1439","MAPL001R",TRUE,TRUE,0.24,2,58,16,8,NA,NA,NA
"1440","MAPL001R",TRUE,TRUE,0.17,2,59,16,9,NA,NA,NA
"1441","MAPL001R",FALSE,TRUE,0.06,2,60,16,9,NA,NA,NA
"1442","MAPL001R",TRUE,TRUE,0.01,2,61,16,9,NA,NA,NA
"1443","MAPL001R",TRUE,TRUE,0.08,2,62,16,10,NA,NA,NA
"1444","MAPL001R",FALSE,TRUE,0.15,2,63,16,10,NA,NA,NA
"1445","MAPL001R",TRUE,TRUE,0,2,64,16,10,NA,NA,NA
"1446","MAPL001R",TRUE,TRUE,0.03,2,65,16,11,NA,NA,NA
"1447","MAPL001R",TRUE,TRUE,0.08,2,66,16,11,NA,NA,NA
"1448","MAPL001R",TRUE,TRUE,0.09,2,67,16,11,NA,NA,NA
"1449","MAPL001R",TRUE,TRUE,0.07,2,68,16,12,NA,NA,NA
"1450","MAPL001R",FALSE,TRUE,0.14,2,69,16,12,NA,NA,NA
"1451","MAPL001R",TRUE,TRUE,0.1,2,70,16,12,NA,NA,NA
"1452","MAPL001R",FALSE,FALSE,0.14,2,71,16,13,NA,NA,NA
"1453","MAPL001R",FALSE,FALSE,0.15,2,72,16,12,NA,NA,NA
"1454","MAPL001R",TRUE,TRUE,0.2,2,73,16,11,NA,NA,NA
"1455","MAPL001R",TRUE,TRUE,0.07,2,74,16,11,NA,NA,NA
"1456","MAPL001R",FALSE,FALSE,0.24,2,75,16,11,NA,NA,NA
"1457","MAPL001R",TRUE,TRUE,0.23,2,76,16,10,NA,NA,NA
"1458","MAPL001R",TRUE,TRUE,0.27,2,77,16,10,NA,NA,NA
"1459","MAPL001R",TRUE,TRUE,0.17,2,78,16,10,NA,NA,NA
"1460","MAPL001R",TRUE,TRUE,0.06,2,79,16,11,NA,NA,NA
"1461","MAPL001R",TRUE,TRUE,0.27,2,80,16,11,NA,NA,NA
"1462","MAPL001R",FALSE,TRUE,0.09,2,81,16,11,NA,NA,NA
"1463","MAPL001R",FALSE,FALSE,0.19,2,82,16,12,NA,NA,NA
"1464","MAPL001R",TRUE,FALSE,0.56,2,83,16,11,NA,NA,NA
"1465","MAPL001R",TRUE,TRUE,0.16,2,84,16,10,NA,NA,NA
"1466","MAPL001R",FALSE,TRUE,0.27,2,85,16,10,NA,NA,NA
"1467","MAPL001R",FALSE,FALSE,0.12,2,86,16,10,NA,NA,NA
"1468","MAPL001R",TRUE,TRUE,0.79,2,87,16,9,NA,NA,NA
"1469","MAPL001R",FALSE,TRUE,0.44,2,88,16,9,NA,NA,NA
"1470","MAPL001R",FALSE,TRUE,0.24,2,89,16,9,NA,NA,NA
"1471","MAPL001R",TRUE,TRUE,0.14,2,90,16,10,NA,NA,NA
"1472","MAPL001R",FALSE,FALSE,0.26,2,91,16,10,NA,NA,NA
"1473","MAPL001R",FALSE,FALSE,0.19,2,92,16,9,NA,NA,NA
"1474","MAPL001R",FALSE,TRUE,0.13,2,93,16,8,NA,NA,NA
"1475","MAPL001R",FALSE,FALSE,0.15,2,94,16,8,NA,NA,NA
"1476","MAPL001R",FALSE,FALSE,0.68,2,95,16,7,NA,NA,NA
"1477","MAPL001R",TRUE,TRUE,0.1,2,96,16,6,NA,NA,NA
"1478","MAPL001R",TRUE,TRUE,0.13,2,97,16,6,NA,NA,NA
"1479","MAPL001R",TRUE,TRUE,0.15,3,1,12,0,30,32.2,32.35
"1480","MAPL001R",TRUE,TRUE,0.09,3,2,12,0,35,37.2,37.29
"1481","MAPL001R",FALSE,TRUE,0.14,3,3,12,0,40,42.2,42.34
"1482","MAPL001R",TRUE,TRUE,0.08,3,4,12,0,45,47.2,47.28
"1483","MAPL001R",TRUE,TRUE,0.1,3,5,12,0,50,52.2,52.3
"1484","MAPL001R",FALSE,TRUE,0.02,3,6,12,0,55,57.2,57.22
"1485","MAPL001R",TRUE,TRUE,0.16,3,7,18,6,60,62.2,62.36
"1486","MAPL001R",FALSE,TRUE,0.22,3,8,18,6,65,67.2,67.42
"1487","MAPL001R",FALSE,TRUE,0.45,3,9,18,6,70,72.2,72.65
"1488","MAPL001R",FALSE,TRUE,0.31,3,10,18,6,75,77.2,77.51
"1489","MAPL001R",TRUE,TRUE,0.1,3,11,18,6,80,82.2,82.3
"1490","MAPL001R",FALSE,TRUE,0.11,3,12,18,6,85,87.2,87.31
"1491","MAPL001R",FALSE,TRUE,0.31,3,13,18,6,90,92.2,92.51
"1492","MAPL001R",TRUE,TRUE,0.19,3,14,18,6,95,97.2,97.39
"1493","MAPL001R",TRUE,TRUE,0.14,3,15,18,6,100,102.2,102.34
"1494","MAPL001R",FALSE,TRUE,0.02,3,16,18,6,105,107.2,107.22
"1495","MAPL001R",TRUE,TRUE,0.24,3,17,18,6,110,112.2,112.44
"1496","MAPL001R",TRUE,TRUE,0.13,3,18,18,6,115,117.2,117.33
"1497","MAPL001R",TRUE,TRUE,0.04,3,19,18,6,120,122.2,122.24
"1498","MAPL001R",FALSE,TRUE,0.11,3,20,18,6,125,127.2,127.31
"1499","MAPL001R",TRUE,TRUE,0.02,3,21,18,6,130,132.2,132.22
"1500","MAPL001R",TRUE,TRUE,0.09,3,22,18,6,135,137.2,137.29
"1501","MAPL001R",TRUE,TRUE,0.01,3,23,18,6,140,142.2,142.21
"1502","MAPL001R",TRUE,TRUE,0.1,3,24,18,6,145,147.2,147.3
"1503","MAPL001R",TRUE,TRUE,0.02,3,25,18,6,150,152.2,152.22
"1504","MAPL001R",FALSE,TRUE,0.23,3,26,18,6,155,157.2,157.43
"1505","MAPL001R",FALSE,TRUE,0.2,3,27,18,6,160,162.2,162.4
"1506","MAPL001R",TRUE,TRUE,0.09,3,28,18,6,165,167.2,167.29
"1507","MAPL001R",TRUE,TRUE,0.1,3,29,18,6,170,172.2,172.3
"1508","MAPL001R",TRUE,TRUE,0.08,3,30,18,6,175,177.2,177.28
"1509","MAPL001R",TRUE,FALSE,0.28,3,31,24,12,180,182.2,182.48
"1510","MAPL001R",FALSE,TRUE,0.17,3,32,24,12,185,187.2,187.37
"1511","MAPL001R",FALSE,FALSE,0.14,3,33,24,12,190,192.2,192.34
"1512","MAPL001R",TRUE,FALSE,0.36,3,34,24,12,195,197.2,197.56
"1513","MAPL001R",TRUE,TRUE,0.4,3,35,24,12,200,202.2,202.6
"1514","MAPL001R",TRUE,TRUE,0.25,3,36,24,12,205,207.2,207.45
"1515","MAPL001R",FALSE,FALSE,0.74,3,37,24,12,210,212.2,212.94
"1516","MAPL001R",FALSE,TRUE,0.27,3,38,24,12,215,217.2,217.47
"1517","MAPL001R",TRUE,FALSE,0.79,3,39,24,12,220,222.2,222.99
"1518","MAPL001R",TRUE,TRUE,0.910000000000001,3,40,24,12,225,227.2,228.11
"1519","MAPL001R",FALSE,FALSE,0.77,3,41,24,12,230,232.2,232.97
"1520","MAPL001R",TRUE,TRUE,0.42,3,42,24,12,235,237.2,237.62
"1521","MAPL001R",FALSE,TRUE,0.38,3,43,24,12,240,242.2,242.58
"1522","MAPL001R",FALSE,TRUE,0.17,3,44,24,12,245,247.2,247.37
"1523","MAPL001R",TRUE,FALSE,0.43,3,45,24,12,250,252.2,252.63
"1524","MAPL001R",TRUE,FALSE,0.44,3,46,24,12,255,257.2,257.64
"1525","MAPL001R",TRUE,FALSE,0.66,3,47,24,12,260,262.2,262.86
"1526","MAPL001R",TRUE,FALSE,0.76,3,48,24,12,265,267.2,267.96
"1527","MAPL001R",FALSE,TRUE,1.26,3,49,24,12,270,272.2,273.46
"1528","MAPL001R",FALSE,TRUE,0.32,3,50,24,12,275,277.2,277.52
"1529","MAPL001R",FALSE,FALSE,0.74,3,51,24,12,280,282.2,282.94
"1530","MAPL001R",TRUE,TRUE,0.71,3,52,24,12,285,287.2,287.91
"1531","MAPL001R",TRUE,TRUE,0.79,3,53,24,12,290,292.2,292.99
"1532","MAPL001R",FALSE,FALSE,0.27,3,54,24,12,295,297.2,297.47
"1533","MAPL001R",FALSE,TRUE,0.15,3,55,12,0,300,302.2,302.35
"1534","MAPL001R",FALSE,TRUE,0.15,3,56,12,0,305,307.2,307.35
"1535","MAPL001R",TRUE,TRUE,0.24,3,57,12,0,310,312.2,312.44
"1536","MAPL001R",FALSE,TRUE,0.04,3,58,12,0,315,317.2,317.24
"1537","MAPL001R",TRUE,TRUE,0.31,3,59,12,0,320,322.2,322.51
"1538","MAPL001R",FALSE,TRUE,0.61,3,60,12,0,325,327.2,327.81
"1539","MAPL001R",FALSE,TRUE,0.1,3,61,12,0,330,332.2,332.3
"1540","MAPL001R",FALSE,TRUE,0.06,3,62,12,0,335,337.2,337.26
"1541","MAPL001R",FALSE,TRUE,0.14,3,63,12,0,340,342.2,342.34
"1542","MAPL001R",TRUE,TRUE,0.13,3,64,12,0,345,347.2,347.33
"1543","MAPL001R",TRUE,TRUE,0.47,3,65,12,0,350,352.2,352.67
"1544","MAPL001R",TRUE,TRUE,0.08,3,66,12,0,355,357.2,357.28
"1545","MAPL001R",FALSE,TRUE,0.47,3,67,12,0,360,362.2,362.67
"1546","MAPL001R",TRUE,TRUE,0.03,3,68,12,0,365,367.2,367.23
"1547","MAPL001R",TRUE,TRUE,0.05,3,69,12,0,370,372.2,372.25
"1548","MAPL001R",FALSE,TRUE,0.13,3,70,12,0,375,377.2,377.33
"1549","MAPL001R",FALSE,TRUE,0.03,3,71,12,0,380,382.2,382.23
"1550","MAPL001R",FALSE,TRUE,0.08,3,72,12,0,385,387.2,387.28
"1551","MAPL001R",FALSE,TRUE,0.04,3,73,12,0,390,392.2,392.24
"1552","MAPL001R",FALSE,TRUE,0.13,3,74,12,0,395,397.2,397.33
"1553","MAPL001R",FALSE,TRUE,0.02,3,75,12,0,400,402.2,402.22
"1554","MAPL001R",TRUE,TRUE,0.08,3,76,12,0,405,407.2,407.28
"1555","MAPL001R",TRUE,TRUE,0.23,3,77,12,0,410,412.2,412.43
"1556","MAPL001R",FALSE,TRUE,0.11,3,78,12,0,415,417.2,417.31
"1557","MAPL001R",TRUE,TRUE,0.18,3,79,18,6,420,422.2,422.38
"1558","MAPL001R",TRUE,TRUE,0.32,3,80,18,6,425,427.2,427.52
"1559","MAPL001R",FALSE,TRUE,0.29,3,81,18,6,430,432.2,432.49
"1560","MAPL001R",TRUE,TRUE,0.22,3,82,18,6,435,437.2,437.42
"1561","MAPL001R",TRUE,TRUE,0.08,3,83,18,6,440,442.2,442.28
"1562","MAPL001R",TRUE,TRUE,0.03,3,84,18,6,445,447.2,447.23
"1563","MAPL001R",FALSE,TRUE,0.1,3,85,18,6,450,452.2,452.3
"1564","MAPL001R",TRUE,TRUE,0.16,3,86,18,6,455,457.2,457.36
"1565","MAPL001R",FALSE,TRUE,0.23,3,87,18,6,460,462.2,462.43
"1566","MAPL001R",TRUE,TRUE,0.11,3,88,18,6,465,467.2,467.31
"1567","MAPL001R",FALSE,TRUE,0.48,3,89,18,6,470,472.2,472.68
"1568","MAPL001R",FALSE,TRUE,0.39,3,90,18,6,475,477.2,477.59
"1569","MAPL001R",FALSE,TRUE,0.12,3,91,18,6,480,482.2,482.32
"1570","MAPL001R",TRUE,TRUE,0.17,3,92,18,6,485,487.2,487.37
"1571","MAPL001R",FALSE,TRUE,0.22,3,93,18,6,490,492.2,492.42
"1572","MAPL001R",TRUE,TRUE,0.07,3,94,18,6,495,497.2,497.27
"1573","MAPL001R",TRUE,FALSE,0.25,3,95,18,6,500,502.2,502.45
"1574","MAPL001R",FALSE,TRUE,0.21,3,96,18,6,505,507.2,507.41
"1575","MAPL001R",TRUE,TRUE,0.17,3,97,18,6,510,512.2,512.37
"1576","MAPL001R",TRUE,TRUE,0.16,3,98,18,6,515,517.2,517.36
"1577","MAPL001R",TRUE,FALSE,0.52,3,99,18,6,520,522.2,522.72
"1578","MAPL001R",TRUE,TRUE,0.09,3,100,18,6,525,527.2,527.29
"1579","MAPL001R",FALSE,TRUE,0.2,3,101,18,6,530,532.2,532.4
"1580","MAPL001R",FALSE,TRUE,0.12,3,102,18,6,535,537.2,537.32
"1581","MAPL001R",FALSE,TRUE,0.03,3,103,12,0,540,542.2,542.23
"1582","MAPL001R",TRUE,TRUE,0.08,3,104,12,0,545,547.2,547.28
"1583","MAPL001R",FALSE,TRUE,0.74,3,105,12,0,550,552.2,552.94
"1584","MAPL001R",FALSE,TRUE,0.03,3,106,12,0,555,557.2,557.23
"1585","MAPL001R",FALSE,TRUE,0.1,3,107,12,0,560,562.2,562.3
"1586","MAPL001R",TRUE,TRUE,0.1,3,108,12,0,565,567.2,567.3
"1587","MAPL001R",TRUE,TRUE,0.13,3,109,12,0,570,572.2,572.33
"1588","MAPL001R",TRUE,TRUE,0.08,3,110,12,0,575,577.2,577.28
"1589","MAPL001R",TRUE,TRUE,0.07,3,111,12,0,580,582.2,582.27
"1590","MAPL001R",FALSE,TRUE,0.06,3,112,12,0,585,587.2,587.26
"1591","MAPL001R",TRUE,TRUE,0.04,3,113,12,0,590,592.2,592.24
"1592","MAPL001R",FALSE,TRUE,0.17,3,114,12,0,595,597.2,597.37
"1593","MAPL001R",FALSE,TRUE,0.12,3,115,12,0,600,602.2,602.32
"1594","MAPL001R",FALSE,TRUE,0.09,3,116,12,0,605,607.2,607.29
"1595","MAPL001R",FALSE,TRUE,0.06,3,117,12,0,610,612.2,612.26
"1596","MAPL001R",TRUE,TRUE,0.11,3,118,12,0,615,617.2,617.31
"1597","MAPL001R",FALSE,TRUE,0.23,3,119,12,0,620,622.2,622.43
"1598","MAPL001R",TRUE,TRUE,0.05,3,120,12,0,625,627.2,627.25
"1599","MAPL001R",FALSE,TRUE,0.01,3,121,12,0,630,632.2,632.21
"1600","MAPL001R",FALSE,TRUE,0.06,3,122,12,0,635,637.2,637.26
"1601","MAPL001R",FALSE,TRUE,0.55,3,123,12,0,640,642.2,642.75
"1602","MAPL001R",FALSE,FALSE,0.81,3,124,12,0,645,647.2,648.01
"1603","MAPL001R",TRUE,TRUE,0.41,3,125,12,0,650,652.2,652.61
"1604","MAPL001R",FALSE,TRUE,0.1,3,126,12,0,655,657.2,657.3
"1605","MAPL001R",TRUE,TRUE,0.02,3,127,24,12,660,662.2,662.22
"1606","MAPL001R",FALSE,TRUE,0.14,3,128,24,12,665,667.2,667.34
"1607","MAPL001R",FALSE,TRUE,0.14,3,129,24,12,670,672.2,672.34
"1608","MAPL001R",FALSE,TRUE,0.05,3,130,24,12,675,677.2,677.25
"1609","MAPL001R",FALSE,TRUE,0.18,3,131,24,12,680,682.2,682.38
"1610","MAPL001R",FALSE,TRUE,0.16,3,132,24,12,685,687.2,687.36
"1611","MAPL001R",FALSE,TRUE,0.1,3,133,24,12,690,692.2,692.3
"1612","MAPL001R",FALSE,TRUE,0.07,3,134,24,12,695,697.2,697.27
"1613","MAPL001R",FALSE,FALSE,0.12,3,135,24,12,700,702.2,702.32
"1614","MAPL001R",FALSE,TRUE,0.27,3,136,24,12,705,707.2,707.47
"1615","MAPL001R",TRUE,TRUE,0.29,3,137,24,12,710,712.2,712.49
"1616","MAPL001R",TRUE,TRUE,0.29,3,138,24,12,715,717.2,717.49
"1617","MAPL001R",FALSE,TRUE,0.22,3,139,24,12,720,722.2,722.42
"1618","MAPL001R",FALSE,TRUE,0.19,3,140,24,12,725,727.2,727.39
"1619","MAPL001R",FALSE,TRUE,0.2,3,141,24,12,730,732.2,732.4
"1620","MAPL001R",TRUE,TRUE,0.16,3,142,24,12,735,737.2,737.36
"1621","MAPL001R",FALSE,TRUE,0.19,3,143,24,12,740,742.2,742.39
"1622","MAPL001R",TRUE,TRUE,0.22,3,144,24,12,745,747.2,747.42
"1623","MAPL001R",FALSE,TRUE,0.07,3,145,24,12,750,752.2,752.27
"1624","MAPL001R",TRUE,TRUE,0.43,3,146,24,12,755,757.2,757.63
"1625","MAPL001R",TRUE,FALSE,0.44,3,147,24,12,760,762.2,762.64
"1626","MAPL001R",FALSE,TRUE,0.39,3,148,24,12,765,767.2,767.59
"1627","MAPL001R",TRUE,TRUE,0.32,3,149,24,12,770,772.2,772.52
"1628","MAPL001R",FALSE,FALSE,0.41,3,150,24,12,775,777.2,777.61
"1629","MAPL000",FALSE,TRUE,0.14,1,1,0,0,NA,NA,NA
"1630","MAPL000",TRUE,TRUE,0.07,1,2,0,0,NA,NA,NA
"1631","MAPL000",FALSE,TRUE,0.2,1,3,0,0,NA,NA,NA
"1632","MAPL000",TRUE,TRUE,0.09,1,4,1,0,NA,NA,NA
"1633","MAPL000",FALSE,TRUE,0.18,1,5,1,0,NA,NA,NA
"1634","MAPL000",FALSE,TRUE,0.07,1,6,1,0,NA,NA,NA
"1635","MAPL000",TRUE,TRUE,0.31,1,7,2,0,NA,NA,NA
"1636","MAPL000",TRUE,TRUE,0.22,1,8,2,0,NA,NA,NA
"1637","MAPL000",FALSE,TRUE,1.96,1,9,2,0,NA,NA,NA
"1638","MAPL000",FALSE,TRUE,0.980000000000001,1,10,3,0,NA,NA,NA
"1639","MAPL000",FALSE,TRUE,0.13,1,11,3,0,NA,NA,NA
"1640","MAPL000",FALSE,TRUE,0.13,1,12,3,0,NA,NA,NA
"1641","MAPL000",FALSE,TRUE,0.14,1,13,4,0,NA,NA,NA
"1642","MAPL000",TRUE,TRUE,0.34,1,14,4,0,NA,NA,NA
"1643","MAPL000",FALSE,TRUE,0.22,1,15,4,0,NA,NA,NA
"1644","MAPL000",FALSE,TRUE,0.13,1,16,5,0,NA,NA,NA
"1645","MAPL000",TRUE,TRUE,0.09,1,17,5,0,NA,NA,NA
"1646","MAPL000",TRUE,TRUE,0.26,1,18,5,0,NA,NA,NA
"1647","MAPL000",TRUE,TRUE,0,1,19,6,0,NA,NA,NA
"1648","MAPL000",TRUE,TRUE,0.22,1,20,6,0,NA,NA,NA
"1649","MAPL000",TRUE,TRUE,0.13,1,21,6,0,NA,NA,NA
"1650","MAPL000",TRUE,TRUE,0.2,1,22,7,0,NA,NA,NA
"1651","MAPL000",TRUE,TRUE,0.12,1,23,7,0,NA,NA,NA
"1652","MAPL000",FALSE,TRUE,0.1,1,24,7,0,NA,NA,NA
"1653","MAPL000",FALSE,TRUE,0.16,1,25,8,0,NA,NA,NA
"1654","MAPL000",FALSE,TRUE,0.19,1,26,8,0,NA,NA,NA
"1655","MAPL000",FALSE,TRUE,0.12,1,27,8,0,NA,NA,NA
"1656","MAPL000",TRUE,TRUE,0.09,1,28,9,0,NA,NA,NA
"1657","MAPL000",TRUE,TRUE,0.2,1,29,9,0,NA,NA,NA
"1658","MAPL000",TRUE,TRUE,0.33,1,30,9,0,NA,NA,NA
"1659","MAPL000",FALSE,TRUE,0.11,1,31,10,0,NA,NA,NA
"1660","MAPL000",FALSE,FALSE,0.13,1,32,10,0,NA,NA,NA
"1661","MAPL000",TRUE,FALSE,0.2,1,33,9,0,NA,NA,NA
"1662","MAPL000",TRUE,TRUE,0.13,1,34,8,0,NA,NA,NA
"1663","MAPL000",FALSE,FALSE,0.1,1,35,8,0,NA,NA,NA
"1664","MAPL000",TRUE,TRUE,0.13,1,36,7,0,NA,NA,NA
"1665","MAPL000",FALSE,TRUE,0.18,1,37,7,0,NA,NA,NA
"1666","MAPL000",FALSE,FALSE,0.15,1,38,7,0,NA,NA,NA
"1667","MAPL000",FALSE,TRUE,0.15,1,39,6,0,NA,NA,NA
"1668","MAPL000",TRUE,TRUE,0.17,1,40,6,0,NA,NA,NA
"1669","MAPL000",TRUE,TRUE,0.18,1,41,6,0,NA,NA,NA
"1670","MAPL000",TRUE,TRUE,0.16,1,42,7,0,NA,NA,NA
"1671","MAPL000",TRUE,TRUE,0.23,1,43,7,0,NA,NA,NA
"1672","MAPL000",FALSE,FALSE,0.21,1,44,7,0,NA,NA,NA
"1673","MAPL000",TRUE,TRUE,0.18,1,45,6,0,NA,NA,NA
"1674","MAPL000",FALSE,FALSE,0.18,1,46,6,0,NA,NA,NA
"1675","MAPL000",FALSE,FALSE,0.11,1,47,5,0,NA,NA,NA
"1676","MAPL000",TRUE,TRUE,0.12,1,48,4,0,NA,NA,NA
"1677","MAPL000",FALSE,TRUE,0.12,1,49,4,0,NA,NA,NA
"1678","MAPL000",FALSE,TRUE,0.12,1,50,4,0,NA,NA,NA
"1679","MAPL000",TRUE,TRUE,0.12,1,51,5,0,NA,NA,NA
"1680","MAPL000",FALSE,TRUE,0.12,1,52,5,0,NA,NA,NA
"1681","MAPL000",FALSE,TRUE,0.15,1,53,5,0,NA,NA,NA
"1682","MAPL000",FALSE,TRUE,0.1,1,54,6,0,NA,NA,NA
"1683","MAPL000",FALSE,TRUE,0.15,1,55,6,0,NA,NA,NA
"1684","MAPL000",FALSE,TRUE,0.13,1,56,6,0,NA,NA,NA
"1685","MAPL000",FALSE,TRUE,0.1,1,57,7,0,NA,NA,NA
"1686","MAPL000",TRUE,TRUE,0.09,1,58,7,0,NA,NA,NA
"1687","MAPL000",TRUE,TRUE,0.11,1,59,7,0,NA,NA,NA
"1688","MAPL000",TRUE,TRUE,0.32,1,60,8,0,NA,NA,NA
"1689","MAPL000",TRUE,TRUE,0.22,1,61,8,0,NA,NA,NA
"1690","MAPL000",FALSE,TRUE,0.12,1,62,8,0,NA,NA,NA
"1691","MAPL000",FALSE,TRUE,0.14,1,63,9,0,NA,NA,NA
"1692","MAPL000",FALSE,TRUE,0.15,1,64,9,0,NA,NA,NA
"1693","MAPL000",FALSE,TRUE,0.13,1,65,9,0,NA,NA,NA
"1694","MAPL000",TRUE,TRUE,0.1,1,66,10,0,NA,NA,NA
"1695","MAPL000",TRUE,TRUE,0.21,1,67,10,0,NA,NA,NA
"1696","MAPL000",TRUE,TRUE,0.12,1,68,10,0,NA,NA,NA
"1697","MAPL000",TRUE,TRUE,0.15,1,69,11,0,NA,NA,NA
"1698","MAPL000",FALSE,TRUE,0.12,1,70,11,0,NA,NA,NA
"1699","MAPL000",FALSE,TRUE,0.13,1,71,11,0,NA,NA,NA
"1700","MAPL000",TRUE,TRUE,0.09,1,72,12,0,NA,NA,NA
"1701","MAPL000",FALSE,TRUE,0.11,1,73,12,0,NA,NA,NA
"1702","MAPL000",FALSE,TRUE,0.15,1,74,12,0,NA,NA,NA
"1703","MAPL000",FALSE,TRUE,0.07,1,75,13,0,NA,NA,NA
"1704","MAPL000",FALSE,FALSE,0.03,1,76,13,0,NA,NA,NA
"1705","MAPL000",TRUE,TRUE,0.08,1,77,12,0,NA,NA,NA
"1706","MAPL000",FALSE,TRUE,0.74,1,78,12,0,NA,NA,NA
"1707","MAPL000",TRUE,TRUE,1.14,1,79,12,0,NA,NA,NA
"1708","MAPL000",FALSE,TRUE,0.25,1,80,13,0,NA,NA,NA
"1709","MAPL000",TRUE,TRUE,1.36,1,81,13,0,NA,NA,NA
"1710","MAPL000",TRUE,TRUE,0.27,1,82,13,0,NA,NA,NA
"1711","MAPL000",TRUE,TRUE,2.30999999999999,1,83,14,0,NA,NA,NA
"1712","MAPL000",TRUE,TRUE,1.01,1,84,14,0,NA,NA,NA
"1713","MAPL000",FALSE,FALSE,0.26,1,85,14,0,NA,NA,NA
"1714","MAPL000",FALSE,TRUE,1.02,1,86,13,0,NA,NA,NA
"1715","MAPL000",TRUE,FALSE,0.66,1,87,13,0,NA,NA,NA
"1716","MAPL000",FALSE,FALSE,0.53,1,88,12,0,NA,NA,NA
"1717","MAPL000",FALSE,TRUE,0.74,1,89,11,0,NA,NA,NA
"1718","MAPL000",FALSE,TRUE,0.910000000000001,1,90,11,0,NA,NA,NA
"1719","MAPL000",FALSE,FALSE,0.33,1,91,11,0,NA,NA,NA
"1720","MAPL000",TRUE,FALSE,0.41,1,92,10,0,NA,NA,NA
"1721","MAPL000",TRUE,TRUE,0,1,93,9,0,NA,NA,NA
"1722","MAPL000",TRUE,TRUE,0.59,1,94,9,0,NA,NA,NA
"1723","MAPL000",TRUE,TRUE,0.1,1,95,9,0,NA,NA,NA
"1724","MAPL000",TRUE,TRUE,0.57,1,96,10,0,NA,NA,NA
"1725","MAPL000",FALSE,FALSE,1.14,1,97,10,0,NA,NA,NA
"1726","MAPL000",FALSE,TRUE,0.12,2,1,6,0,NA,NA,NA
"1727","MAPL000",FALSE,FALSE,0.32,2,2,6,0,NA,NA,NA
"1728","MAPL000",TRUE,TRUE,0.2,2,3,6,0,NA,NA,NA
"1729","MAPL000",TRUE,TRUE,0.23,2,4,6,0,NA,NA,NA
"1730","MAPL000",TRUE,TRUE,0.27,2,5,6,0,NA,NA,NA
"1731","MAPL000",FALSE,TRUE,0.16,2,6,6,1,NA,NA,NA
"1732","MAPL000",FALSE,TRUE,0.17,2,7,6,1,NA,NA,NA
"1733","MAPL000",TRUE,TRUE,1.02,2,8,6,1,NA,NA,NA
"1734","MAPL000",TRUE,TRUE,0.27,2,9,6,2,NA,NA,NA
"1735","MAPL000",TRUE,TRUE,0,2,10,6,2,NA,NA,NA
"1736","MAPL000",TRUE,TRUE,0.46,2,11,6,2,NA,NA,NA
"1737","MAPL000",TRUE,TRUE,0.18,2,12,6,3,NA,NA,NA
"1738","MAPL000",TRUE,TRUE,0.22,2,13,6,3,NA,NA,NA
"1739","MAPL000",TRUE,TRUE,0.3,2,14,6,3,NA,NA,NA
"1740","MAPL000",FALSE,TRUE,0.27,2,15,6,4,NA,NA,NA
"1741","MAPL000",TRUE,TRUE,0.46,2,16,6,4,NA,NA,NA
"1742","MAPL000",FALSE,TRUE,0.17,2,17,6,4,NA,NA,NA
"1743","MAPL000",TRUE,TRUE,0.13,2,18,6,5,NA,NA,NA
"1744","MAPL000",FALSE,TRUE,0.23,2,19,6,5,NA,NA,NA
"1745","MAPL000",FALSE,TRUE,0.19,2,20,6,5,NA,NA,NA
"1746","MAPL000",TRUE,TRUE,0.27,2,21,6,6,NA,NA,NA
"1747","MAPL000",FALSE,TRUE,0.16,2,22,6,6,NA,NA,NA
"1748","MAPL000",TRUE,TRUE,0.14,2,23,6,6,NA,NA,NA
"1749","MAPL000",FALSE,TRUE,0.23,2,24,6,7,NA,NA,NA
"1750","MAPL000",TRUE,TRUE,0.41,2,25,6,7,NA,NA,NA
"1751","MAPL000",TRUE,TRUE,0.29,2,26,6,7,NA,NA,NA
"1752","MAPL000",TRUE,TRUE,0.3,2,27,6,8,NA,NA,NA
"1753","MAPL000",TRUE,TRUE,0.21,2,28,6,8,NA,NA,NA
"1754","MAPL000",FALSE,FALSE,0.33,2,29,6,8,NA,NA,NA
"1755","MAPL000",FALSE,TRUE,0.14,2,30,6,7,NA,NA,NA
"1756","MAPL000",TRUE,TRUE,0.18,2,31,6,7,NA,NA,NA
"1757","MAPL000",FALSE,TRUE,0.17,2,32,6,7,NA,NA,NA
"1758","MAPL000",FALSE,TRUE,0.19,2,33,6,8,NA,NA,NA
"1759","MAPL000",TRUE,TRUE,0.14,2,34,6,8,NA,NA,NA
"1760","MAPL000",TRUE,TRUE,0.18,2,35,6,8,NA,NA,NA
"1761","MAPL000",FALSE,TRUE,0.12,2,36,6,9,NA,NA,NA
"1762","MAPL000",FALSE,TRUE,0.14,2,37,6,9,NA,NA,NA
"1763","MAPL000",FALSE,TRUE,0.14,2,38,6,9,NA,NA,NA
"1764","MAPL000",FALSE,FALSE,0.28,2,39,6,10,NA,NA,NA
"1765","MAPL000",TRUE,TRUE,0.06,2,40,6,9,NA,NA,NA
"1766","MAPL000",FALSE,TRUE,0.11,2,41,6,9,NA,NA,NA
"1767","MAPL000",FALSE,TRUE,0.08,2,42,6,9,NA,NA,NA
"1768","MAPL000",FALSE,TRUE,0.13,2,43,6,10,NA,NA,NA
"1769","MAPL000",FALSE,TRUE,0.11,2,44,6,10,NA,NA,NA
"1770","MAPL000",FALSE,TRUE,0.08,2,45,6,10,NA,NA,NA
"1771","MAPL000",FALSE,TRUE,0.15,2,46,6,11,NA,NA,NA
"1772","MAPL000",FALSE,TRUE,0.15,2,47,6,11,NA,NA,NA
"1773","MAPL000",FALSE,TRUE,0.12,2,48,6,11,NA,NA,NA
"1774","MAPL000",FALSE,TRUE,0.2,2,49,6,12,NA,NA,NA
"1775","MAPL000",FALSE,TRUE,0.26,2,50,6,12,NA,NA,NA
"1776","MAPL000",FALSE,TRUE,0.3,2,51,6,12,NA,NA,NA
"1777","MAPL000",FALSE,TRUE,0.2,2,52,6,13,NA,NA,NA
"1778","MAPL000",FALSE,TRUE,0.19,2,53,6,13,NA,NA,NA
"1779","MAPL000",TRUE,TRUE,0.19,2,54,6,13,NA,NA,NA
"1780","MAPL000",TRUE,TRUE,0.26,2,55,6,14,NA,NA,NA
"1781","MAPL000",FALSE,TRUE,0.1,2,56,6,14,NA,NA,NA
"1782","MAPL000",TRUE,TRUE,0.21,2,57,6,14,NA,NA,NA
"1783","MAPL000",TRUE,TRUE,0.2,2,58,6,15,NA,NA,NA
"1784","MAPL000",TRUE,TRUE,0.11,2,59,6,15,NA,NA,NA
"1785","MAPL000",TRUE,TRUE,0.19,2,60,6,15,NA,NA,NA
"1786","MAPL000",TRUE,TRUE,0.29,2,61,6,16,NA,NA,NA
"1787","MAPL000",FALSE,FALSE,0.3,2,62,6,16,NA,NA,NA
"1788","MAPL000",FALSE,TRUE,0.23,2,63,6,15,NA,NA,NA
"1789","MAPL000",TRUE,TRUE,0.24,2,64,6,15,NA,NA,NA
"1790","MAPL000",TRUE,TRUE,0.2,2,65,6,15,NA,NA,NA
"1791","MAPL000",FALSE,TRUE,0.16,2,66,6,16,NA,NA,NA
"1792","MAPL000",FALSE,TRUE,0.11,2,67,6,16,NA,NA,NA
"1793","MAPL000",TRUE,TRUE,0.2,2,68,6,16,NA,NA,NA
"1794","MAPL000",FALSE,TRUE,0.28,2,69,6,17,NA,NA,NA
"1795","MAPL000",TRUE,TRUE,0.2,2,70,6,17,NA,NA,NA
"1796","MAPL000",TRUE,TRUE,0.13,2,71,6,17,NA,NA,NA
"1797","MAPL000",TRUE,TRUE,0.11,2,72,6,18,NA,NA,NA
"1798","MAPL000",FALSE,TRUE,0.04,2,73,6,18,NA,NA,NA
"1799","MAPL000",TRUE,TRUE,0.36,2,74,6,18,NA,NA,NA
"1800","MAPL000",TRUE,TRUE,0.31,2,75,6,19,NA,NA,NA
"1801","MAPL000",FALSE,TRUE,0.13,2,76,6,19,NA,NA,NA
"1802","MAPL000",TRUE,TRUE,0.29,2,77,6,19,NA,NA,NA
"1803","MAPL000",TRUE,TRUE,0.22,2,78,6,20,NA,NA,NA
"1804","MAPL000",FALSE,FALSE,0.17,2,79,6,20,NA,NA,NA
"1805","MAPL000",TRUE,TRUE,0.22,2,80,6,19,NA,NA,NA
"1806","MAPL000",FALSE,TRUE,0.18,2,81,6,19,NA,NA,NA
"1807","MAPL000",FALSE,FALSE,0.29,2,82,6,19,NA,NA,NA
"1808","MAPL000",TRUE,TRUE,0.970000000000001,2,83,6,18,NA,NA,NA
"1809","MAPL000",TRUE,TRUE,0.17,2,84,6,18,NA,NA,NA
"1810","MAPL000",FALSE,TRUE,0.2,2,85,6,18,NA,NA,NA
"1811","MAPL000",FALSE,FALSE,1.37,2,86,6,19,NA,NA,NA
"1812","MAPL000",TRUE,TRUE,0.28,2,87,6,18,NA,NA,NA
"1813","MAPL000",TRUE,TRUE,0.2,2,88,6,18,NA,NA,NA
"1814","MAPL000",TRUE,TRUE,0.870000000000001,2,89,6,18,NA,NA,NA
"1815","MAPL000",TRUE,TRUE,1.76,2,90,6,19,NA,NA,NA
"1816","MAPL000",TRUE,TRUE,0.23,2,91,6,19,NA,NA,NA
"1817","MAPL000",FALSE,TRUE,0.1,2,92,6,19,NA,NA,NA
"1818","MAPL000",TRUE,TRUE,0.05,2,93,6,20,NA,NA,NA
"1819","MAPL000",TRUE,TRUE,0.04,2,94,6,20,NA,NA,NA
"1820","MAPL000",FALSE,FALSE,0.55,2,95,6,20,NA,NA,NA
"1821","MAPL000",TRUE,TRUE,0.21,2,96,6,19,NA,NA,NA
"1822","MAPL000",TRUE,TRUE,0.26,2,97,6,19,NA,NA,NA
"1823","MAPL000",FALSE,FALSE,0.32,2,98,6,19,NA,NA,NA
"1824","MAPL002",FALSE,FALSE,0.890000000000001,1,1,0,0,NA,NA,NA
"1825","MAPL002",TRUE,TRUE,0.41,1,2,0,0,NA,NA,NA
"1826","MAPL002",FALSE,TRUE,0.32,1,3,0,0,NA,NA,NA
"1827","MAPL002",TRUE,TRUE,0.29,1,4,0,0,NA,NA,NA
"1828","MAPL002",TRUE,TRUE,0.15,1,5,1,0,NA,NA,NA
"1829","MAPL002",FALSE,TRUE,0.5,1,6,1,0,NA,NA,NA
"1830","MAPL002",FALSE,TRUE,0.21,1,7,1,0,NA,NA,NA
"1831","MAPL002",TRUE,TRUE,0.08,1,8,2,0,NA,NA,NA
"1832","MAPL002",FALSE,TRUE,1.48,1,9,2,0,NA,NA,NA
"1833","MAPL002",FALSE,TRUE,0.68,1,10,2,0,NA,NA,NA
"1834","MAPL002",FALSE,TRUE,0.33,1,11,3,0,NA,NA,NA
"1835","MAPL002",TRUE,TRUE,0.01,1,12,3,0,NA,NA,NA
"1836","MAPL002",TRUE,TRUE,0.18,1,13,3,0,NA,NA,NA
"1837","MAPL002",FALSE,TRUE,0.13,1,14,4,0,NA,NA,NA
